Trial	Block	stimside	congruentcondition	colors	respside	accuracy	RT	reward	trialtime	tmstime	query	qresp	qrt
1	1	2	2	1	2	1	567	0	-0.0268942501861602	0	0	0	0
2	1	2	2	2	2	1	578	0	2.10526379995281	0	0	0	0
3	1	2	1	1	2	1	686	0	4.23784046794754	0	0	0	0
4	1	1	2	1	1	1	501	0	6.48702284769388	0	0	0	0
5	1	1	2	1	1	1	515	0	8.53629139368422	0	0	0	0
6	1	2	2	2	2	1	561	0	10.6188911849749	0	0	0	0
7	1	1	2	1	1	1	572	0	12.735218590009	0	0	0	0
8	1	2	2	2	2	1	504	0	14.8677620874951	0	0	0	0
9	1	2	1	1	2	1	518	0	16.93331440154	0	0	0	0
10	1	1	2	2	1	1	629	0	18.9992588244495	0	0	0	0
11	1	2	2	2	2	1	558	0	21.1984772085561	0	0	0	0
12	1	1	1	2	1	1	794	0	23.3143819932011	0	0	0	0
13	1	2	1	2	2	1	507	0	25.680192934582	0	0	0	0
14	1	2	2	1	2	1	456	0	27.7633779438329	0	0	0	0
15	1	2	1	2	2	1	600	0	29.7787452332559	0	0	0	0
16	1	2	2	1	2	1	517	0	31.927982186724	0	0	0	0
17	1	1	2	1	1	1	529	0	33.9939315095544	0	0	0	0
18	1	2	2	2	2	1	543	0	36.0768960890709	0	0	0	0
19	1	1	2	2	1	1	508	0	38.1761336069903	0	0	0	0
20	1	2	1	1	2	1	602	0	40.2416994459927	0	0	0	0
21	1	1	2	2	1	1	516	0	42.4080836850335	0	0	0	0
22	1	2	2	2	2	1	529	0	44.4740970278508	0	0	0	0
23	1	1	1	2	1	1	575	0	46.5565232401714	0	0	0	0
24	1	1	1	2	1	1	763	0	48.6890465272008	0	0	0	0
25	1	2	2	1	1	2	526	0	51.0211848811014	0	0	0	0
26	1	1	1	1	1	1	716	0	53.1038035094971	0	0	0	0
27	1	1	1	2	1	1	818	0	55.369657671079	0	0	0	0
28	1	1	1	2	1	1	707	0	57.7358467202284	0	0	0	0
29	1	1	2	2	1	1	619	0	60.0019471286796	0	0	0	0
30	1	1	1	1	1	1	724	0	62.1672312649316	0	0	0	0
31	1	2	2	1	2	1	474	0	64.4497602622141	0	0	0	0
32	1	2	2	1	2	1	792	0	66.4829376880662	0	0	0	0
33	1	1	2	1	1	1	558	0	68.8148709856323	0	0	0	0
34	1	2	1	1	2	1	520	0	70.9307873931248	0	0	0	0
35	1	1	2	2	1	1	550	0	73.0137638685992	0	0	0	0
36	1	1	1	2	1	1	803	0	75.1292663312051	0	0	0	0
37	1	1	2	1	1	1	452	0	77.4956122525036	0	0	0	0
38	1	2	1	2	2	1	485	0	79.5110543915071	0	0	0	0
39	1	2	1	2	2	1	483	0	81.5603339976515	0	0	0	0
40	1	1	1	2	1	1	515	0	83.6100946000079	0	0	0	0
41	1	2	1	1	2	1	576	0	85.6759606947307	0	0	0	0
42	1	1	2	2	1	1	602	0	87.8253434076323	0	0	0	0
43	1	1	1	1	1	1	501	0	89.9906555827474	0	0	0	0
44	1	2	1	2	2	1	611	0	92.0565961297834	0	0	0	0
45	1	2	2	2	2	1	526	0	94.2224879014539	0	0	0	0
46	1	1	2	2	1	1	507	0	96.3217547264067	0	0	0	0
47	1	1	1	1	1	1	520	0	98.3880531318719	0	0	0	0
48	1	2	1	1	2	1	550	0	100.453595000959	0	0	0	0
49	1	2	2	2	2	1	386	0	102.56952883699	0	0	0	0
50	1	1	1	1	1	1	501	0	104.518848890264	0	0	0	0
51	1	2	1	1	2	1	515	0	106.568096289586	0	0	0	0
52	1	1	1	2	1	1	562	0	108.650682633452	0	0	0	0
53	1	2	1	1	2	1	476	0	110.783645569696	0	0	0	0
54	1	1	2	1	1	1	588	0	112.81587650557	0	0	0	0
55	1	1	2	2	0	99	0	0	114.948976630869	0	0	0	0
56	1	1	1	2	1	1	817	0	117.530873676587	0	0	0	0
57	1	2	2	1	2	1	563	0	119.913371684146	0	0	0	0
58	1	2	1	2	2	1	766	0	122.045915041293	0	0	0	0
59	1	1	1	2	1	1	610	0	124.378417950356	0	0	0	0
60	1	1	2	1	1	1	555	0	126.544351810997	0	0	0	0
61	1	2	2	1	2	1	663	0	128.660245160805	0	0	0	0
62	1	2	2	1	2	1	431	0	130.876612692606	0	0	0	0
63	1	1	1	1	1	1	608	0	132.859139893437	0	0	0	0
64	1	1	2	1	1	1	539	0	135.024662013398	0	0	0	0
65	1	2	2	1	2	1	568	0	137.12389433576	0	0	0	0
66	1	1	1	1	1	1	739	0	139.256457132811	0	0	0	0
67	1	1	1	1	1	1	393	0	141.539411343168	0	0	0	0
68	1	1	1	1	1	1	410	0	143.504967802262	0	0	0	0
69	1	2	1	2	2	1	492	0	145.471334281436	0	0	0	0
70	1	1	1	1	1	1	363	0	147.520207551657	0	0	0	0
71	1	2	2	1	2	1	639	0	149.452836214157	0	0	0	0
72	1	1	1	1	1	1	535	0	151.652452969167	0	0	0	0
73	1	1	1	1	1	1	388	0	153.735033808043	0	0	0	0
74	1	2	1	2	2	1	471	0	155.700640760886	0	0	0	0
75	1	2	2	2	2	1	582	0	157.733240488742	0	0	0	0
76	1	1	2	2	2	2	497	0	159.882478303101	0	0	0	0
77	1	1	2	2	1	1	608	0	161.948403462942	0	0	0	0
78	1	1	1	2	1	1	441	0	164.114307873708	0	0	0	0
79	1	2	2	2	2	1	668	0	166.096928159648	0	0	0	0
80	1	2	1	1	2	1	708	0	168.312804610003	0	0	0	0
81	1	2	1	2	2	1	681	0	170.579058294243	0	0	0	0
82	1	2	1	1	2	1	353	0	172.827862846956	0	0	0	0
83	1	2	1	2	2	1	548	0	174.743844469485	0	0	0	0
84	1	2	2	1	2	1	592	0	176.843603775604	0	0	0	0
85	1	2	1	2	2	1	475	0	178.992913666414	0	0	0	0
86	1	1	2	1	2	2	442	0	181.0253518768	0	0	0	0
87	1	1	1	2	1	1	699	0	183.024815495883	0	0	0	0
88	1	1	2	2	1	1	562	0	185.29009248584	0	0	0	0
89	1	2	2	2	2	1	765	0	187.406502452213	0	0	0	0
90	1	1	2	1	1	1	673	0	189.722436236159	0	0	0	0
91	1	2	1	1	2	1	618	0	191.937739274232	0	0	0	0
92	1	2	2	2	2	1	581	0	194.103633984458	0	0	0	0
93	1	2	1	1	2	1	735	0	196.252844800067	0	0	0	0
94	1	1	2	1	1	1	500	0	198.5520450779	0	0	0	0
95	1	1	2	2	1	1	545	0	200.618439942074	0	0	0	0
96	1	2	1	2	2	1	415	0	202.717240439903	0	0	0	0
97	2	2	2	2	2	1	633	0	210.914659483533	0	0	0	0
98	2	2	1	1	2	1	563	0	213.096865063242	0	0	0	0
99	2	2	2	1	2	1	543	0	215.212792355334	0	0	0	0
100	2	2	2	2	2	1	604	0	217.312043987331	0	0	0	0
101	2	1	1	1	1	1	533	0	219.478456726414	0	0	0	0
102	2	1	1	1	1	1	483	0	221.560528095404	0	0	0	0
103	2	2	1	1	2	1	530	0	223.609808870649	0	0	0	0
104	2	1	2	2	1	1	766	0	225.709049532656	0	0	0	0
105	2	1	2	1	1	1	579	0	228.02489730285	0	0	0	0
106	2	1	1	2	1	1	525	0	230.157824797905	0	0	0	0
107	2	1	2	2	1	1	411	0	232.24005901895	0	0	0	0
108	2	1	1	2	1	1	494	0	234.206043758721	0	0	0	0
109	2	1	1	2	1	1	428	0	236.255712381157	0	0	0	0
110	2	2	1	2	2	1	637	0	238.23838811327	0	0	0	0
111	2	2	2	1	2	1	599	0	240.421038309578	0	0	0	0
112	2	2	2	1	2	1	465	0	242.570259338245	0	0	0	0
113	2	2	1	2	2	1	610	0	244.602329181333	0	0	0	0
114	2	1	1	2	1	1	619	0	246.768226392858	0	0	0	0
115	2	1	1	1	1	1	517	0	248.951340299682	0	0	0	0
116	2	1	1	2	1	1	467	0	251.016700454522	0	0	0	0
117	2	1	2	1	1	1	514	0	253.049864354078	0	0	0	0
118	2	1	2	2	1	1	527	0	255.115835030156	0	0	0	0
119	2	1	2	1	1	1	526	0	257.197856663552	0	0	0	0
120	2	2	2	2	2	1	634	0	259.29766044463	0	0	0	0
121	2	1	1	1	1	1	547	0	261.496317712124	0	0	0	0
122	2	1	1	2	1	1	831	0	263.612584343995	0	0	0	0
123	2	1	1	1	1	1	448	0	265.994707337697	0	0	0	0
124	2	2	1	1	2	1	498	0	267.994016624813	0	0	0	0
125	2	1	2	2	1	1	529	0	270.043286787346	0	0	0	0
126	2	1	2	2	1	1	621	0	272.142525319068	0	0	0	0
127	2	2	1	1	2	1	584	0	274.325102500326	0	0	0	0
128	2	2	2	2	2	1	688	0	276.474772957561	0	0	0	0
129	2	2	1	1	2	1	376	0	278.723896847456	0	0	0	0
130	2	1	2	1	1	1	667	0	280.6561681928	0	0	0	0
131	2	1	1	2	1	1	419	0	282.872402166948	0	0	0	0
132	2	2	2	2	2	1	484	0	284.854676218645	0	0	0	0
133	2	2	1	1	2	1	691	0	286.904300788417	0	0	0	0
134	2	1	1	1	1	1	523	0	289.153167948883	0	0	0	0
135	2	1	2	2	1	1	584	0	291.235723497055	0	0	0	0
136	2	1	2	2	1	1	499	0	293.368312920677	0	0	0	0
137	2	2	1	2	2	1	562	0	295.418158149638	0	0	0	0
138	2	2	2	2	2	1	557	0	297.550159097009	0	0	0	0
139	2	1	2	2	1	1	633	0	299.683189645933	0	0	0	0
140	2	1	2	1	1	1	513	0	301.882350235537	0	0	0	0
141	2	2	1	1	2	1	672	0	303.947876924183	0	0	0	0
142	2	2	2	2	2	1	535	0	306.18043044454	0	0	0	0
143	2	1	2	2	1	1	516	0	308.280084026395	0	0	0	0
144	2	1	1	1	1	1	754	0	310.345622173685	0	0	0	0
145	2	1	1	1	1	1	503	0	312.661456008966	0	0	0	0
146	2	1	1	2	1	1	627	0	314.728000546049	0	0	0	0
147	2	2	2	1	2	1	493	0	316.910279895237	0	0	0	0
148	2	2	1	1	2	1	668	0	318.959736007615	0	0	0	0
149	2	1	1	2	1	1	483	0	321.192255829985	0	0	0	0
150	2	1	1	2	1	1	515	0	323.224351105397	0	0	0	0
151	2	2	1	1	2	1	608	0	325.290795603651	0	0	0	0
152	2	2	2	2	2	1	540	0	327.456188094569	0	0	0	0
153	2	2	1	2	2	1	488	0	329.555448826693	0	0	0	0
154	2	2	2	1	2	1	551	0	331.588509761379	0	0	0	0
155	2	1	2	1	1	1	499	0	333.704590344278	0	0	0	0
156	2	2	1	2	2	1	561	0	335.753847559448	0	0	0	0
157	2	2	2	2	2	1	542	0	337.885810664739	0	0	0	0
158	2	2	1	1	2	1	682	0	339.985062824271	0	0	0	0
159	2	1	1	1	1	1	481	0	342.234681567526	0	0	0	0
160	2	2	1	2	2	1	544	0	344.283542800171	0	0	0	0
161	2	2	2	1	2	1	524	0	346.399442503345	0	0	0	0
162	2	2	1	2	2	1	521	0	348.482517116703	0	0	0	0
163	2	2	1	2	2	1	423	0	350.548432294105	0	0	0	0
164	2	1	2	2	1	1	730	0	352.51393914537	0	0	0	0
165	2	1	2	2	1	1	607	0	354.813547519792	0	0	0	0
166	2	2	1	1	2	1	472	0	356.979644335224	0	0	0	0
167	2	1	2	1	1	1	487	0	359.012165312481	0	0	0	0
168	2	1	2	1	1	1	599	0	361.0609106216	0	0	0	0
169	2	1	1	2	1	1	641	0	363.210128467297	0	0	0	0
170	2	2	1	2	2	1	858	0	365.42601062695	0	0	0	0
171	2	2	1	2	2	1	491	0	367.841819220688	0	0	0	0
172	2	1	1	2	1	1	489	0	369.891081389447	0	0	0	0
173	2	2	2	1	2	1	646	0	371.940851038205	0	0	0	0
174	2	2	2	1	2	1	560	0	374.139567384671	0	0	0	0
175	2	1	1	1	1	1	557	0	376.256072962598	0	0	0	0
176	2	1	2	2	1	1	679	0	378.388080260891	0	0	0	0
177	2	2	2	1	2	1	623	0	380.620611337596	0	0	0	0
178	2	2	1	1	2	1	505	0	382.803171453648	0	0	0	0
179	2	2	2	1	2	1	486	0	384.869610548369	0	0	0	0
180	2	2	1	2	2	1	341	0	386.918719553039	0	0	0	0
181	2	2	1	2	2	1	553	0	388.834362987487	0	0	0	0
182	2	1	1	1	1	1	533	0	390.933925886406	0	0	0	0
183	2	2	2	2	2	1	547	0	393.016204390675	0	0	0	0
184	2	2	2	2	2	1	448	0	395.115467251977	0	0	0	0
185	2	2	2	1	2	1	496	0	397.13142645621	0	0	0	0
186	2	1	2	1	1	1	575	0	399.180678718898	0	0	0	0
187	2	1	2	1	1	1	458	0	401.313250831736	0	0	0	0
188	2	2	2	2	2	1	746	0	403.345853203733	0	0	0	0
189	2	2	2	1	2	1	478	0	405.645637210866	0	0	0	0
190	2	1	1	1	1	1	591	0	407.694322348339	0	0	0	0
191	2	1	2	1	1	1	552	0	409.843545354437	0	0	0	0
192	2	1	2	1	1	1	485	0	411.959457670397	0	0	0	0
193	3	2	2	1	2	1	543	0	420.973312025482	0	0	0	0
194	3	1	2	2	1	1	603	0	423.072196252644	0	0	0	0
195	3	1	1	1	1	1	646	0	425.221428432968	0	0	0	0
196	3	1	2	1	1	1	510	0	427.437291333103	0	0	0	0
197	3	2	2	1	2	1	573	0	429.503218842612	0	0	0	0
198	3	2	2	1	2	1	503	0	431.652444913925	0	0	0	0
199	3	1	2	1	1	1	469	0	433.718777810689	0	0	0	0
200	3	2	2	1	2	1	469	0	435.734317434602	0	0	0	0
201	3	2	1	1	2	1	373	0	437.766966617317	0	0	0	0
202	3	1	2	2	1	1	520	0	439.716264021525	0	0	0	0
203	3	2	1	1	2	1	404	0	441.798848158622	0	0	0	0
204	3	1	2	1	1	1	486	0	443.764822953555	0	0	0	0
205	3	1	1	1	1	1	950	0	445.814096965711	0	0	0	0
206	3	2	1	1	2	1	450	0	448.329859300284	0	0	0	0
207	3	1	2	1	1	1	562	0	450.345804119832	0	0	0	0
208	3	2	1	2	2	1	477	0	452.462142343051	0	0	0	0
209	3	2	2	2	2	1	589	0	454.494327712513	0	0	0	0
210	3	2	2	1	2	1	665	0	456.643566936662	0	0	0	0
211	3	1	2	1	1	1	463	0	458.876455499674	0	0	0	0
212	3	2	1	2	2	1	607	0	460.892406414379	0	0	0	0
213	3	2	1	1	2	1	794	0	463.057968660956	0	0	0	0
214	3	2	2	1	2	1	620	0	465.407538321742	0	0	0	0
215	3	2	1	2	2	1	454	0	467.573004045698	0	0	0	0
216	3	1	1	2	1	1	838	0	469.588954549457	0	0	0	0
217	3	1	2	2	1	1	472	0	471.971453726117	0	0	0	0
218	3	2	1	1	2	1	535	0	474.004425644525	0	0	0	0
219	3	2	2	1	2	1	501	0	476.086634099891	0	0	0	0
220	3	1	2	2	1	1	468	0	478.135921687295	0	0	0	0
221	3	1	1	2	1	1	690	0	480.169134991535	0	0	0	0
222	3	2	1	1	2	1	539	0	482.401074177353	0	0	0	0
223	3	2	1	2	2	1	728	0	484.500313658908	0	0	0	0
224	3	2	1	2	2	1	542	0	486.782832455647	0	0	0	0
225	3	1	1	2	1	1	489	0	488.882467649062	0	0	0	0
226	3	2	2	1	1	2	408	0	490.931709144905	0	0	0	0
227	3	1	2	2	1	1	586	0	492.897655375942	0	0	0	0
228	3	2	2	2	2	1	709	0	495.046956925944	0	0	0	0
229	3	2	1	2	2	1	458	0	497.329433311708	0	0	0	0
230	3	2	2	1	2	1	586	0	499.345633168763	0	0	0	0
231	3	2	1	2	2	1	533	0	501.494256854057	0	0	0	0
232	3	2	2	2	2	1	530	0	503.593519997376	0	0	0	0
233	3	2	1	2	2	1	511	0	505.692762584193	0	0	0	0
234	3	2	1	2	2	1	365	0	507.759194686369	0	0	0	0
235	3	2	1	1	2	1	417	0	509.67470659205	0	0	0	0
236	3	1	1	2	1	1	418	0	511.641060971015	0	0	0	0
237	3	1	2	2	1	1	548	0	513.607015542861	0	0	0	0
238	3	2	1	2	2	1	625	0	515.722556719731	0	0	0	0
239	3	2	2	2	2	1	506	0	517.905107838335	0	0	0	0
240	3	1	1	1	1	1	536	0	519.971432446851	0	0	0	0
241	3	1	1	1	1	1	453	0	522.070278974716	0	0	0	0
242	3	1	2	2	1	1	741	0	524.086620558694	0	0	0	0
243	3	1	1	1	1	1	490	0	526.385995828954	0	0	0	0
244	3	1	1	2	1	1	424	0	528.435055430105	0	0	0	0
245	3	2	1	2	2	1	507	0	530.417329379008	0	0	0	0
246	3	2	1	2	2	1	424	0	532.483262253052	0	0	0	0
247	3	2	1	1	2	1	650	0	534.466262723319	0	0	0	0
248	3	1	1	1	1	1	531	0	536.681754610967	0	0	0	0
249	3	2	2	2	2	1	622	0	538.781582171505	0	0	0	0
250	3	1	2	1	1	1	616	0	540.963558698655	0	0	0	0
251	3	1	1	2	1	1	626	0	543.129474158224	0	0	0	0
252	3	1	2	1	1	1	492	0	545.328664454573	0	0	0	0
253	3	1	2	2	1	1	585	0	547.37796093541	0	0	0	0
254	3	1	2	2	1	1	452	0	549.527543916542	0	0	0	0
255	3	1	1	1	1	1	452	0	551.527109871502	0	0	0	0
256	3	2	2	1	2	1	469	0	553.542427987966	0	0	0	0
257	3	2	2	2	2	1	436	0	555.575030321081	0	0	0	0
258	3	2	1	1	2	1	725	0	557.557658574486	0	0	0	0
259	3	2	2	1	2	1	506	0	559.85684369941	0	0	0	0
260	3	1	1	1	1	1	504	0	561.922787182615	0	0	0	0
261	3	2	2	2	2	1	599	0	563.989083932713	0	0	0	0
262	3	1	2	2	1	1	529	0	566.138425903744	0	0	0	0
263	3	2	1	1	2	1	543	0	568.220914672478	0	0	0	0
264	3	2	2	2	2	1	572	0	570.319784028688	0	0	0	0
265	3	1	2	1	1	1	695	0	572.452375491208	0	0	0	0
266	3	1	1	2	2	2	526	0	574.701567968761	0	0	0	0
267	3	1	1	2	1	1	699	0	576.800818114425	0	0	0	0
268	3	2	2	2	2	1	545	0	579.050329516875	0	0	0	0
269	3	1	1	1	1	1	590	0	581.165911768912	0	0	0	0
270	3	1	2	1	1	1	538	0	583.298508429318	0	0	0	0
271	3	1	1	2	1	1	581	0	585.397748937248	0	0	0	0
272	3	2	1	1	2	1	497	0	587.53031735454	0	0	0	0
273	3	1	1	2	1	1	831	0	589.580021983304	0	0	0	0
274	3	2	2	2	2	1	481	0	591.962457691377	0	0	0	0
275	3	1	2	2	1	1	465	0	594.011365452898	0	0	0	0
276	3	2	2	1	2	1	528	0	596.027685069363	0	0	0	0
277	3	1	2	1	1	1	557	0	598.110369206523	0	0	0	0
278	3	2	2	2	2	1	505	0	600.226229077613	0	0	0	0
279	3	1	1	2	1	1	519	0	602.291746847739	0	0	0	0
280	3	1	2	1	1	1	597	0	604.374768402195	0	0	0	0
281	3	2	1	1	2	1	463	0	606.540683002153	0	0	0	0
282	3	1	1	1	1	1	463	0	608.556575210125	0	0	0	0
283	3	1	2	2	1	1	495	0	610.572544089751	0	0	0	0
284	3	1	2	1	1	1	477	0	612.638582455111	0	0	0	0
285	3	1	1	1	1	1	541	0	614.671017778222	0	0	0	0
286	3	1	1	2	1	1	570	0	616.769914479053	0	0	0	0
287	3	2	2	2	2	1	629	0	618.902843705961	0	0	0	0
288	3	1	1	1	1	1	718	0	621.08508069918	0	0	0	0
289	4	2	2	2	2	1	600	0	630.53171013511	0	0	0	0
290	4	2	1	2	2	1	564	0	632.680918961996	0	0	0	0
291	4	2	2	1	2	1	494	0	634.813504548511	0	0	0	0
292	4	1	1	2	1	1	460	0	636.879830657039	0	0	0	0
293	4	2	2	1	2	1	524	0	638.89573313063	0	0	0	0
294	4	2	1	1	2	1	536	0	640.995031600934	0	0	0	0
295	4	1	2	1	1	1	550	0	643.093904844427	0	0	0	0
296	4	1	1	2	1	1	449	0	645.210122894787	0	0	0	0
297	4	1	2	1	2	2	417	0	647.226261799457	0	0	0	0
298	4	1	1	1	1	1	739	0	649.19172405923	0	0	0	0
299	4	2	1	2	2	1	571	0	651.47424493375	0	0	0	0
300	4	1	2	2	1	1	694	0	653.590169657022	0	0	0	0
301	4	2	1	1	2	1	780	0	655.83935908071	0	0	0	0
302	4	1	1	2	1	1	559	0	658.171851647669	0	0	0	0
303	4	1	2	2	1	1	555	0	660.287773126503	0	0	0	0
304	4	2	1	1	2	1	568	0	662.420365448692	0	0	0	0
305	4	1	1	1	1	1	515	0	664.53660400532	0	0	0	0
306	4	2	1	1	2	1	658	0	666.602206442039	0	0	0	0
307	4	2	2	2	1	2	505	0	668.81807419192	0	0	0	0
308	4	1	1	1	1	1	631	0	670.884399839211	0	0	0	0
309	4	1	1	2	1	1	625	0	673.083237923798	0	0	0	0
310	4	2	1	2	2	1	585	0	675.266178865742	0	0	0	0
311	4	2	2	2	2	1	532	0	677.415034426958	0	0	0	0
312	4	1	1	2	1	1	579	0	679.497622079158	0	0	0	0
313	4	2	2	2	2	1	509	0	681.64683451131	0	0	0	0
314	4	2	2	1	2	1	506	0	683.712775095948	0	0	0	0
315	4	1	2	2	1	1	873	0	685.778706749552	0	0	0	0
316	4	2	2	1	2	1	537	0	688.211167596222	0	0	0	0
317	4	2	2	2	2	1	692	0	690.310955119203	0	0	0	0
318	4	1	2	1	1	1	539	0	692.560138999019	0	0	0	0
319	4	2	2	1	2	1	552	0	694.658868845203	0	0	0	0
320	4	2	1	2	2	1	581	0	696.774804847955	0	0	0	0
321	4	1	2	2	1	1	527	0	698.924415712536	0	0	0	0
322	4	1	1	1	1	1	445	0	701.007083809527	0	0	0	0
323	4	1	1	1	1	1	477	0	703.022575761832	0	0	0	0
324	4	2	2	2	2	1	588	0	705.055580403248	0	0	0	0
325	4	1	2	2	1	1	534	0	707.204995517153	0	0	0	0
326	4	2	1	2	2	1	484	0	709.287007256993	0	0	0	0
327	4	1	1	1	1	1	516	0	711.319616518682	0	0	0	0
328	4	1	2	2	2	2	419	0	713.38556270994	0	0	0	0
329	4	2	2	2	2	1	739	0	715.36854484427	0	0	0	0
330	4	1	2	2	1	1	633	0	717.650698404177	0	0	0	0
331	4	1	2	2	1	1	625	0	719.849917199288	0	0	0	0
332	4	2	1	2	2	1	667	0	722.03293146455	0	0	0	0
333	4	1	2	2	1	1	643	0	724.265014152741	0	0	0	0
334	4	2	1	1	2	1	572	0	726.464218538138	0	0	0	0
335	4	2	1	2	2	1	551	0	728.596812157193	0	0	0	0
336	4	2	1	1	2	1	612	0	730.696058760339	0	0	0	0
337	4	1	1	2	1	1	478	0	732.861953073298	0	0	0	0
338	4	2	1	1	2	1	924	0	734.894975396455	0	0	0	0
339	4	2	1	1	2	1	507	0	737.377014352824	0	0	0	0
340	4	2	1	2	2	1	488	0	739.442949688178	0	0	0	0
341	4	2	2	2	2	1	519	0	741.492217888241	0	0	0	0
342	4	2	2	2	2	1	453	0	743.55814637267	0	0	0	0
343	4	1	1	1	1	1	630	0	745.557452618435	0	0	0	0
344	4	1	2	1	1	1	463	0	747.73999351263	0	0	0	0
345	4	2	2	2	2	1	687	0	749.772601080127	0	0	0	0
346	4	1	2	1	1	1	566	0	752.021798793226	0	0	0	0
347	4	2	2	2	2	1	560	0	754.154885610391	0	0	0	0
348	4	2	1	2	2	1	572	0	756.287402160582	0	0	0	0
349	4	1	2	2	1	1	647	0	758.420052805974	0	0	0	0
350	4	2	2	1	2	1	529	0	760.618743961968	0	0	0	0
351	4	2	1	2	2	1	462	0	762.70135060657	0	0	0	0
352	4	1	1	2	1	1	686	0	764.717288072745	0	0	0	0
353	4	2	2	1	2	1	661	0	766.950182525441	0	0	0	0
354	4	1	1	1	1	1	542	0	769.166272154951	0	0	0	0
355	4	1	1	2	2	2	603	0	771.281650953402	0	0	0	0
356	4	1	2	1	1	1	531	0	773.448137412954	0	0	0	0
357	4	1	2	1	1	1	497	0	775.530465459917	0	0	0	0
358	4	1	2	1	1	1	384	0	777.579371296626	0	0	0	0
359	4	2	2	1	2	1	562	0	779.529196688207	0	0	0	0
360	4	1	2	2	1	1	606	0	781.661256920022	0	0	0	0
361	4	2	2	1	2	1	568	0	783.827155093953	0	0	0	0
362	4	1	2	1	1	1	675	0	785.960280408501	0	0	0	0
363	4	2	1	1	1	2	475	0	788.192267483973	0	0	0	0
364	4	1	1	1	1	1	698	0	790.241534438508	0	0	0	0
365	4	1	2	1	1	1	528	0	792.507421449758	0	0	0	0
366	4	1	1	2	1	1	460	0	794.606642517727	0	0	0	0
367	4	1	1	2	1	1	604	0	796.639265675447	0	0	0	0
368	4	1	2	2	1	1	471	0	798.805155138776	0	0	0	0
369	4	2	1	1	2	1	582	0	800.837771715014	0	0	0	0
370	4	1	2	1	1	1	545	0	802.970359597297	0	0	0	0
371	4	1	1	2	1	1	510	0	805.069594305649	0	0	0	0
372	4	1	1	1	1	1	492	0	807.135539241193	0	0	0	0
373	4	2	1	2	2	1	475	0	809.184808697028	0	0	0	0
374	4	1	2	1	1	1	538	0	811.217416022555	0	0	0	0
375	4	2	1	1	2	1	599	0	813.316666911356	0	0	0	0
376	4	2	2	1	2	1	578	0	815.466507495265	0	0	0	0
377	4	2	2	1	2	1	525	0	817.598926521605	0	0	0	0
378	4	2	1	1	2	1	668	0	819.6810597289	0	0	0	0
379	4	2	2	1	2	1	529	0	821.91414876678	0	0	0	0
380	4	2	1	2	2	1	590	0	823.996707791172	0	0	0	0
381	4	2	2	2	2	1	554	0	826.145929461461	0	0	0	0
382	4	1	1	1	1	1	487	0	828.244678247487	0	0	0	0
383	4	1	1	2	1	1	453	0	830.293954209541	0	0	0	0
384	4	1	1	1	1	1	565	0	832.310520753323	0	0	0	0
