Trial	Block	stimside	congruentcondition	colors	respside	accuracy	RT	reward	trialtime	tmstime	query	qresp	qrt
1	1	1	1	2	1	1	626	0	-0.0219752999983029	0	0	0	0
2	1	1	2	2	1	1	499	0	2.13695440000447	0	0	0	0
3	1	2	1	2	1	2	336	0	4.17201590001059	0	0	0	0
4	1	2	2	1	2	1	517	0	6.03957710000395	0	0	0	0
5	1	1	1	2	1	1	545	0	8.07523200000287	0	0	0	0
6	1	2	1	1	2	1	406	0	10.1496287000045	0	0	0	0
7	1	1	2	1	2	2	441	0	12.0838015000045	0	0	0	0
8	1	1	2	2	1	1	384	0	14.0608771000116	0	0	0	0
9	1	1	2	1	1	1	357	0	15.9755553000141	0	0	0	0
10	1	1	2	1	1	1	483	0	17.849764300001	0	0	0	0
11	1	1	2	2	1	1	374	0	19.8626090000034	0	0	0	0
12	1	1	2	2	1	1	372	0	21.7686075000092	0	0	0	0
13	1	1	2	2	1	1	290	0	23.6595390000002	0	0	0	0
14	1	1	1	1	1	1	384	0	25.4679848000087	0	0	0	0
15	1	2	1	2	2	1	394	0	27.3786822000111	0	0	0	0
16	1	2	2	2	2	1	480	0	29.2920263000124	0	0	0	0
17	1	1	1	2	1	1	578	0	31.2905898000026	0	0	0	0
18	1	1	2	2	2	2	324	0	33.3838069000049	0	0	0	0
19	1	2	2	2	1	2	362	0	35.2342081000097	0	0	0	0
20	1	1	1	2	1	1	453	0	37.1276470000012	0	0	0	0
21	1	1	2	1	1	1	450	0	39.0985344000073	0	0	0	0
22	1	1	1	2	1	1	527	0	41.0697394000017	0	0	0	0
23	1	1	1	2	1	1	317	0	43.1367887000088	0	0	0	0
24	1	2	2	1	1	2	321	0	44.9715879000141	0	0	0	0
25	1	2	1	1	2	1	389	0	46.8236137000058	0	0	0	0
26	1	1	1	1	1	1	531	0	48.7295534000004	0	0	0	0
27	1	1	1	1	1	1	474	0	50.7865058000025	0	0	0	0
28	1	2	1	2	2	1	365	0	52.783499600002	0	0	0	0
29	1	1	2	1	2	2	553	0	54.6745232000103	0	0	0	0
30	1	2	1	1	2	1	469	0	56.7595475000126	0	0	0	0
31	1	2	1	2	2	1	458	0	58.754580400011	0	0	0	0
32	1	1	1	2	1	1	395	0	60.7528002000035	0	0	0	0
33	1	2	1	2	2	1	534	0	62.6635517000104	0	0	0	0
34	1	1	1	2	1	1	473	0	64.7235382000072	0	0	0	0
35	1	2	2	1	1	2	377	0	66.7245383000118	0	0	0	0
36	1	1	2	2	1	1	581	0	68.6317447000038	0	0	0	0
37	1	1	1	2	1	1	545	0	70.7305706000043	0	0	0	0
38	1	2	2	2	2	1	624	0	72.812545400011	0	0	0	0
39	1	1	1	1	1	1	612	0	74.9526045000093	0	0	0	0
40	1	2	2	1	1	2	460	0	77.0883039000037	0	0	0	0
41	1	1	2	1	1	1	593	0	79.0825259000121	0	0	0	0
42	1	1	2	1	1	1	557	0	81.2004573000013	0	0	0	0
43	1	1	1	1	1	1	447	0	83.2775634000136	0	0	0	0
44	1	2	2	2	2	1	607	0	85.2447687000094	0	0	0	0
45	1	1	2	1	1	1	480	0	87.3716125000064	0	0	0	0
46	1	1	2	1	1	1	542	0	89.3744919000019	0	0	0	0
47	1	1	2	1	1	1	472	0	91.4436043000023	0	0	0	0
48	1	2	2	2	2	1	620	0	93.4415524000069	0	0	0	0
49	1	1	2	1	1	1	594	0	95.5785808000073	0	0	0	0
50	1	2	2	1	2	1	667	0	97.6973358000105	0	0	0	0
51	1	2	2	2	2	1	319	0	99.9004929000075	0	0	0	0
52	1	1	2	1	1	1	445	0	101.744372100002	0	0	0	0
53	1	2	2	1	2	1	560	0	103.724450400012	0	0	0	0
54	1	2	1	1	2	1	563	0	105.801690700013	0	0	0	0
55	1	2	2	1	2	1	543	0	107.884725100012	0	0	0	0
56	1	2	1	2	2	1	547	0	109.945941200014	0	0	0	0
57	1	2	2	2	2	1	598	0	112.022308500003	0	0	0	0
58	1	1	1	2	1	1	638	0	114.141512800008	0	0	0	0
59	1	2	2	1	2	1	635	0	116.304791800008	0	0	0	0
60	1	2	1	2	2	1	520	0	118.468290500008	0	0	0	0
61	1	1	2	2	1	1	593	0	120.523581100002	0	0	0	0
62	1	2	1	2	2	1	543	0	122.637595000007	0	0	0	0
63	1	2	1	1	2	1	402	0	124.713505200009	0	0	0	0
64	1	1	2	2	2	2	348	0	126.641518700009	0	0	0	0
65	1	2	2	1	2	1	559	0	128.509445800009	0	0	0	0
66	1	1	2	2	1	1	420	0	130.585031800001	0	0	0	0
67	1	2	1	1	2	1	598	0	132.535358300011	0	0	0	0
68	1	2	1	1	2	1	376	0	134.659560500004	0	0	0	0
69	1	1	2	2	1	1	495	0	136.556852000009	0	0	0	0
70	1	2	2	2	2	1	514	0	138.586039700007	0	0	0	0
71	1	1	1	1	2	2	515	0	140.616532300002	0	0	0	0
72	1	1	1	1	1	1	494	0	142.65425420001	0	0	0	0
73	1	2	1	1	1	2	451	0	144.665615100006	0	0	0	0
74	1	2	2	1	2	1	587	0	146.641581200005	0	0	0	0
75	1	1	1	1	1	1	578	0	148.746606200002	0	0	0	0
76	1	2	1	1	2	1	407	0	150.853548700004	0	0	0	0
77	1	2	1	1	2	1	448	0	152.780556800004	0	0	0	0
78	1	2	2	1	2	1	596	0	154.75944390001	0	0	0	0
79	1	2	2	2	2	1	523	0	156.880818900012	0	0	0	0
80	1	1	1	1	1	1	658	0	158.922608700013	0	0	0	0
81	1	1	2	2	1	1	646	0	161.110738500007	0	0	0	0
82	1	2	2	2	2	1	702	0	163.277606000003	0	0	0	0
83	1	2	1	2	2	1	463	0	165.516707000002	0	0	0	0
84	1	2	2	1	2	1	528	0	167.500552500002	0	0	0	0
85	1	1	1	2	1	1	389	0	169.559602000008	0	0	0	0
86	1	1	1	1	2	2	486	0	171.477413800007	0	0	0	0
87	1	1	1	2	1	1	515	0	173.497715900012	0	0	0	0
88	1	2	1	2	2	1	598	0	175.541643300006	0	0	0	0
89	1	2	1	2	2	1	506	0	177.667614400008	0	0	0	0
90	1	2	2	2	2	1	565	0	179.702476700011	0	0	0	0
91	1	2	1	1	2	1	531	0	181.785776400007	0	0	0	0
92	1	2	1	1	2	1	417	0	183.834484800012	0	0	0	0
93	1	1	1	1	2	2	476	0	185.791481100008	0	0	0	0
94	1	2	2	2	2	1	511	0	187.788529400001	0	0	0	0
95	1	2	1	2	2	1	526	0	189.821853000001	0	0	0	0
96	1	1	1	1	1	1	448	0	191.867507800009	0	0	0	0
97	2	1	1	2	1	1	853	0	215.111118600005	0	0	0	0
98	2	2	1	2	2	1	609	0	217.484248200009	0	0	0	0
99	2	1	1	2	1	1	574	0	219.630546300003	0	0	0	0
100	2	2	2	2	1	2	365	0	221.7276576	0	0	0	0
101	2	2	1	1	2	1	407	0	223.621308500005	0	0	0	0
102	2	2	1	1	2	1	415	0	225.548485800013	0	0	0	0
103	2	1	1	2	1	1	477	0	227.488227400012	0	0	0	0
104	2	2	2	2	1	2	400	0	229.483724900012	0	0	0	0
105	2	1	2	1	1	1	581	0	231.414527900008	0	0	0	0
106	2	2	2	2	2	1	610	0	233.514635300002	0	0	0	0
107	2	1	2	1	2	2	385	0	235.659508200013	0	0	0	0
108	2	1	2	2	2	2	557	0	237.5674631	0	0	0	0
109	2	1	1	1	1	1	577	0	239.643596500013	0	0	0	0
110	2	1	2	1	1	1	484	0	241.751719900014	0	0	0	0
111	2	1	1	1	1	1	488	0	243.764799000011	0	0	0	0
112	2	2	1	1	2	1	587	0	245.77724950001	0	0	0	0
113	2	2	1	1	2	1	471	0	247.893730000011	0	0	0	0
114	2	1	2	2	1	1	676	0	249.896543800001	0	0	0	0
115	2	2	2	2	2	1	941	0	252.095517500013	0	0	0	0
116	2	1	1	1	1	1	754	0	254.55393390001	0	0	0	0
117	2	1	1	2	1	1	525	0	256.8465861	0	0	0	0
118	2	2	2	2	1	2	397	0	258.895521800005	0	0	0	0
119	2	2	2	1	2	1	610	0	260.811035600011	0	0	0	0
120	2	2	1	2	2	1	530	0	262.95504890001	0	0	0	0
121	2	2	2	2	2	1	554	0	265.010941900007	0	0	0	0
122	2	2	1	2	2	1	495	0	267.085455800014	0	0	0	0
123	2	1	2	1	1	1	673	0	269.0985602	0	0	0	0
124	2	1	1	1	1	1	736	0	271.29185780001	0	0	0	0
125	2	2	1	1	2	1	371	0	273.561602800008	0	0	0	0
126	2	1	1	2	1	1	609	0	275.452249800001	0	0	0	0
127	2	2	2	2	2	1	851	0	277.594686700002	0	0	0	0
128	2	2	2	1	2	1	524	0	279.96752060001	0	0	0	0
129	2	1	2	2	1	1	572	0	282.032211000012	0	0	0	0
130	2	1	1	2	1	1	539	0	284.12879860001	0	0	0	0
131	2	1	2	2	1	1	537	0	286.19447490001	0	0	0	0
132	2	1	1	1	1	1	507	0	288.257296900003	0	0	0	0
133	2	2	2	2	2	1	524	0	290.28751590001	0	0	0	0
134	2	2	1	2	2	1	432	0	292.347753600014	0	0	0	0
135	2	1	1	2	1	1	642	0	294.298565800011	0	0	0	0
136	2	1	2	2	1	1	517	0	296.47046360001	0	0	0	0
137	2	1	2	1	1	1	381	0	298.51049500001	0	0	0	0
138	2	1	2	1	2	2	389	0	300.423735900011	0	0	0	0
139	2	2	1	1	2	1	480	0	302.333192100006	0	0	0	0
140	2	2	2	1	2	1	561	0	304.331743700008	0	0	0	0
141	2	2	2	2	2	1	542	0	306.414423300012	0	0	0	0
142	2	1	2	2	1	1	581	0	308.486511100011	0	0	0	0
143	2	2	2	2	1	2	369	0	310.586455100012	0	0	0	0
144	2	2	1	1	2	1	376	0	312.485213100008	0	0	0	0
145	2	1	2	2	0	99	0	0	314.394558	0	0	0	0
146	2	2	1	2	0	99	0	0	316.971761200009	0	0	0	0
147	2	2	2	1	2	1	810	0	319.505685200013	0	0	0	0
148	2	1	1	1	2	2	840	0	321.843402000013	0	0	0	0
149	2	2	1	1	2	1	450	0	324.218072200005	0	0	0	0
150	2	1	1	1	1	1	475	0	326.193781800001	0	0	0	0
151	2	2	2	1	2	1	657	0	328.203575100008	0	0	0	0
152	2	1	2	2	1	1	611	0	330.377365100008	0	0	0	0
153	2	2	2	1	2	1	723	0	332.506532500003	0	0	0	0
154	2	2	2	1	2	1	411	0	334.7534132	0	0	0	0
155	2	1	2	1	1	1	579	0	336.682376900004	0	0	0	0
156	2	1	1	2	2	2	407	0	338.789214500008	0	0	0	0
157	2	2	1	1	2	1	405	0	340.710750000013	0	0	0	0
158	2	2	1	1	2	1	496	0	342.652470200002	0	0	0	0
159	2	2	1	2	1	2	714	0	344.690297000008	0	0	0	0
160	2	1	2	2	1	1	713	0	346.931412700011	0	0	0	0
161	2	1	2	2	1	1	486	0	349.174545300004	0	0	0	0
162	2	2	2	2	1	2	392	0	351.187766400006	0	0	0	0
163	2	2	2	1	2	1	556	0	353.104242800007	0	0	0	0
164	2	1	1	1	1	1	649	0	355.186497500006	0	0	0	0
165	2	1	1	1	1	1	606	0	357.374509100002	0	0	0	0
166	2	1	1	1	1	1	424	0	359.508493300003	0	0	0	0
167	2	2	1	2	2	1	458	0	361.475386800012	0	0	0	0
168	2	2	1	1	2	1	430	0	363.454348400002	0	0	0	0
169	2	2	2	1	2	1	541	0	365.407511400001	0	0	0	0
170	2	1	1	2	1	1	562	0	367.48141410001	0	0	0	0
171	2	2	1	1	2	1	592	0	369.580470500005	0	0	0	0
172	2	1	2	1	1	1	485	0	371.702450100012	0	0	0	0
173	2	1	1	1	1	1	416	0	373.724526400008	0	0	0	0
174	2	1	1	1	1	1	356	0	375.656516500007	0	0	0	0
175	2	2	2	2	1	2	418	0	377.530438200003	0	0	0	0
176	2	2	1	2	2	1	384	0	379.484366100005	0	0	0	0
177	2	1	1	2	1	1	507	0	381.393371800004	0	0	0	0
178	2	2	1	2	2	1	452	0	383.431946700002	0	0	0	0
179	2	2	1	2	2	1	413	0	385.406465100008	0	0	0	0
180	2	1	2	1	2	2	446	0	387.341231800005	0	0	0	0
181	2	2	2	1	2	1	616	0	389.316420200004	0	0	0	0
182	2	1	1	2	1	1	413	0	391.4547093	0	0	0	0
183	2	1	2	1	1	1	658	0	393.38642770001	0	0	0	0
184	2	2	1	2	2	1	479	0	395.566529400006	0	0	0	0
185	2	2	2	1	2	1	531	0	397.560837100013	0	0	0	0
186	2	1	2	2	1	1	597	0	399.624413500002	0	0	0	0
187	2	2	1	2	2	1	530	0	401.738489800002	0	0	0	0
188	2	1	2	2	1	1	489	0	403.794727800007	0	0	0	0
189	2	1	1	2	1	1	382	0	405.806285600003	0	0	0	0
190	2	1	2	1	1	1	461	0	407.711571000007	0	0	0	0
191	2	1	2	1	1	1	434	0	409.706637500014	0	0	0	0
192	2	2	2	1	2	1	591	0	411.661290700009	0	0	0	0
193	3	1	1	1	0	99	0	0	424.074368500005	0	0	0	0
194	3	1	1	1	1	1	783	0	426.605143400011	0	0	0	0
195	3	2	1	1	2	1	524	0	428.928453800007	0	0	0	0
196	3	1	1	2	1	1	410	0	430.977448800011	0	0	0	0
197	3	2	2	2	2	1	579	0	432.904539700001	0	0	0	0
198	3	1	1	1	1	1	596	0	435.000473100008	0	0	0	0
199	3	2	1	2	1	2	578	0	437.131363700013	0	0	0	0
200	3	2	1	1	2	1	497	0	439.227262700006	0	0	0	0
201	3	1	2	1	1	1	610	0	441.241756100004	0	0	0	0
202	3	2	2	1	2	1	607	0	443.389533500012	0	0	0	0
203	3	2	2	1	2	1	531	0	445.5291803	0	0	0	0
204	3	1	1	2	1	1	501	0	447.590705200011	0	0	0	0
205	3	2	2	1	2	1	514	0	449.610489900006	0	0	0	0
206	3	2	2	2	1	2	760	0	451.652349600001	0	0	0	0
207	3	1	2	2	1	1	669	0	453.950541600003	0	0	0	0
208	3	1	1	1	1	1	491	0	456.144702000005	0	0	0	0
209	3	2	1	1	2	1	531	0	458.152777900003	0	0	0	0
210	3	1	1	1	2	2	568	0	460.212464100012	0	0	0	0
211	3	2	1	2	2	1	626	0	462.297744500014	0	0	0	0
212	3	1	2	2	1	1	728	0	464.453325900002	0	0	0	0
213	3	1	1	1	1	1	514	0	466.698350800012	0	0	0	0
214	3	2	2	1	2	1	522	0	468.737094400014	0	0	0	0
215	3	1	2	2	1	1	430	0	470.798343200004	0	0	0	0
216	3	1	2	1	1	1	512	0	472.747621200004	0	0	0	0
217	3	2	2	1	2	1	532	0	474.791635500005	0	0	0	0
218	3	1	2	1	2	2	603	0	476.848447400014	0	0	0	0
219	3	2	1	1	2	1	593	0	478.987513	0	0	0	0
220	3	2	1	1	2	1	561	0	481.114714700001	0	0	0	0
221	3	2	2	1	2	1	445	0	483.199055500008	0	0	0	0
222	3	2	2	2	2	1	457	0	485.171502700003	0	0	0	0
223	3	2	1	2	2	1	449	0	487.1634414	0	0	0	0
224	3	2	1	2	2	1	432	0	489.132429500009	0	0	0	0
225	3	2	2	2	2	1	435	0	491.081372800007	0	0	0	0
226	3	2	2	1	2	1	506	0	493.042369000003	0	0	0	0
227	3	1	2	2	1	1	408	0	495.075547400003	0	0	0	0
228	3	2	1	2	2	1	702	0	497.006571000005	0	0	0	0
229	3	2	2	1	2	1	498	0	499.227159400005	0	0	0	0
230	3	2	1	2	2	1	448	0	501.244383100013	0	0	0	0
231	3	2	2	1	2	1	510	0	503.214353800009	0	0	0	0
232	3	1	1	1	1	1	601	0	505.25226790001	0	0	0	0
233	3	1	2	2	1	1	366	0	507.389140800005	0	0	0	0
234	3	1	2	2	1	1	361	0	509.28343570001	0	0	0	0
235	3	1	1	2	1	1	414	0	511.166698600005	0	0	0	0
236	3	1	1	1	1	1	367	0	513.102269200012	0	0	0	0
237	3	2	2	2	2	1	471	0	514.997504500003	0	0	0	0
238	3	1	2	1	2	2	488	0	516.996183100011	0	0	0	0
239	3	2	2	2	2	1	652	0	519.00827820001	0	0	0	0
240	3	2	1	2	2	1	532	0	521.192405300011	0	0	0	0
241	3	2	2	2	2	1	536	0	523.252524500014	0	0	0	0
242	3	2	2	1	2	1	574	0	525.309786800004	0	0	0	0
243	3	1	2	1	1	1	688	0	527.419514500012	0	0	0	0
244	3	1	1	2	1	1	444	0	529.649210300006	0	0	0	0
245	3	2	1	1	2	1	393	0	531.619696400012	0	0	0	0
246	3	1	1	1	1	1	525	0	533.53457280001	0	0	0	0
247	3	1	2	2	1	1	420	0	535.593366500005	0	0	0	0
248	3	2	1	1	2	1	463	0	537.548660400003	0	0	0	0
249	3	1	2	1	1	1	537	0	539.555455500013	0	0	0	0
250	3	1	1	1	1	1	498	0	541.610509300008	0	0	0	0
251	3	1	1	2	1	1	415	0	543.644443800004	0	0	0	0
252	3	1	2	2	1	1	522	0	545.586336000008	0	0	0	0
253	3	2	2	2	1	2	578	0	547.642217500004	0	0	0	0
254	3	1	1	2	1	1	781	0	549.742567500012	0	0	0	0
255	3	1	1	2	1	1	445	0	552.046933900012	0	0	0	0
256	3	2	1	2	2	1	488	0	554.019557200008	0	0	0	0
257	3	1	2	1	1	1	518	0	556.037656800007	0	0	0	0
258	3	1	2	1	1	1	978	0	558.074437100004	0	0	0	0
259	3	2	2	1	2	1	571	0	560.576392600007	0	0	0	0
260	3	2	1	1	2	1	397	0	562.6704188	0	0	0	0
261	3	1	2	2	1	1	497	0	564.603528000007	0	0	0	0
262	3	1	1	2	1	1	421	0	566.615103000004	0	0	0	0
263	3	2	2	2	2	1	521	0	568.563301600007	0	0	0	0
264	3	1	2	2	1	1	700	0	570.608091500006	0	0	0	0
265	3	1	1	2	1	1	489	0	572.835042400009	0	0	0	0
266	3	1	1	1	1	1	409	0	574.852208700002	0	0	0	0
267	3	2	2	1	2	1	662	0	576.774713200008	0	0	0	0
268	3	1	2	2	1	1	528	0	578.956333900001	0	0	0	0
269	3	1	2	1	1	1	961	0	581.018214700001	0	0	0	0
270	3	2	1	1	2	1	532	0	583.5122978	0	0	0	0
271	3	2	1	2	1	2	590	0	585.566164700009	0	0	0	0
272	3	2	2	2	0	99	0	0	587.673764900013	0	0	0	0
273	3	2	1	2	0	99	0	0	590.217434500009	0	0	0	0
274	3	1	1	1	1	1	717	0	592.798423900007	0	0	0	0
275	3	1	1	2	1	1	481	0	595.051233100006	0	0	0	0
276	3	2	2	2	2	1	754	0	597.065539000003	0	0	0	0
277	3	2	1	1	2	1	469	0	599.351524400001	0	0	0	0
278	3	2	1	2	2	1	480	0	601.34014700001	0	0	0	0
279	3	2	1	2	2	1	497	0	603.338615300003	0	0	0	0
280	3	2	2	2	2	1	472	0	605.3641948	0	0	0	0
281	3	2	1	1	2	1	450	0	607.354418100003	0	0	0	0
282	3	1	2	1	2	2	382	0	609.327292200003	0	0	0	0
283	3	1	2	1	1	1	656	0	611.243530000007	0	0	0	0
284	3	2	1	1	2	1	606	0	613.422797700012	0	0	0	0
285	3	1	1	2	1	1	401	0	615.56441430001	0	0	0	0
286	3	1	2	1	2	2	479	0	617.485649500013	0	0	0	0
287	3	1	2	2	1	1	463	0	619.484360200004	0	0	0	0
288	3	1	1	2	1	1	438	0	621.478364200011	0	0	0	0
289	4	1	2	2	1	1	743	0	640.516927100005	0	0	0	0
290	4	2	1	1	2	1	605	0	642.79927660001	0	0	0	0
291	4	1	1	1	1	1	565	0	644.936430700007	0	0	0	0
292	4	1	2	1	1	1	531	0	647.032585100009	0	0	0	0
293	4	2	1	1	2	1	520	0	649.09170650001	0	0	0	0
294	4	1	2	2	1	1	674	0	651.130283900013	0	0	0	0
295	4	2	1	1	2	1	502	0	653.334229200002	0	0	0	0
296	4	2	1	2	2	1	481	0	655.355381600006	0	0	0	0
297	4	1	2	2	1	1	613	0	657.36742770001	0	0	0	0
298	4	1	2	1	1	1	615	0	659.509520100008	0	0	0	0
299	4	1	2	2	1	1	529	0	661.643096500004	0	0	0	0
300	4	1	1	2	1	1	505	0	663.6994061	0	0	0	0
301	4	2	2	2	2	1	610	0	665.739333500009	0	0	0	0
302	4	1	1	1	2	2	529	0	667.867317200013	0	0	0	0
303	4	2	1	2	2	1	635	0	669.921139700004	0	0	0	0
304	4	1	2	1	1	1	498	0	672.074374300006	0	0	0	0
305	4	2	2	2	2	1	845	0	674.111941800002	0	0	0	0
306	4	2	2	1	2	1	602	0	676.482230400012	0	0	0	0
307	4	2	2	1	2	1	576	0	678.603359500004	0	0	0	0
308	4	2	2	2	2	1	682	0	680.706467100012	0	0	0	0
309	4	2	2	2	2	1	500	0	682.904321700014	0	0	0	0
310	4	1	1	2	1	1	640	0	684.940116400001	0	0	0	0
311	4	1	2	1	1	1	688	0	687.100313500006	0	0	0	0
312	4	1	2	1	1	1	464	0	689.308291100009	0	0	0	0
313	4	1	2	1	1	1	424	0	691.300587400008	0	0	0	0
314	4	2	1	2	1	2	475	0	693.250461300006	0	0	0	0
315	4	1	2	2	1	1	588	0	695.24728570001	0	0	0	0
316	4	2	2	1	2	1	720	0	697.373135600006	0	0	0	0
317	4	2	1	1	2	1	660	0	699.6253803	0	0	0	0
318	4	1	2	1	1	1	690	0	701.819392100006	0	0	0	0
319	4	1	1	2	1	1	545	0	704.026979100003	0	0	0	0
320	4	1	1	2	1	1	639	0	706.109236900011	0	0	0	0
321	4	1	1	1	1	1	590	0	708.269460200012	0	0	0	0
322	4	1	2	2	1	1	659	0	710.377398800003	0	0	0	0
323	4	2	1	1	2	1	662	0	712.566273700009	0	0	0	0
324	4	1	1	2	1	1	767	0	714.764079200002	0	0	0	0
325	4	1	1	1	1	1	530	0	717.051413100009	0	0	0	0
326	4	1	2	2	1	1	567	0	719.110241000002	0	0	0	0
327	4	1	2	2	1	1	550	0	721.206563200001	0	0	0	0
328	4	1	1	1	1	1	771	0	723.2894868	0	0	0	0
329	4	1	1	2	1	1	541	0	725.583313800002	0	0	0	0
330	4	2	1	1	2	1	832	0	727.644096100004	0	0	0	0
331	4	2	2	1	2	1	591	0	729.997183500003	0	0	0	0
332	4	1	1	2	0	99	0	0	732.120495700001	0	0	0	0
333	4	1	2	1	2	2	719	0	734.653336500007	0	0	0	0
334	4	2	2	2	0	99	0	0	736.902440400008	0	0	0	0
335	4	2	2	2	2	1	465	0	739.434595100014	0	0	0	0
336	4	1	1	1	1	1	640	0	741.43639480001	0	0	0	0
337	4	1	2	2	1	1	659	0	743.609324000005	0	0	0	0
338	4	1	1	2	1	1	536	0	745.796329100005	0	0	0	0
339	4	1	2	1	1	1	402	0	747.851368100004	0	0	0	0
340	4	2	2	2	1	2	451	0	749.784300900006	0	0	0	0
341	4	2	2	1	2	1	496	0	751.755261300001	0	0	0	0
342	4	1	2	1	1	1	597	0	753.783140700005	0	0	0	0
343	4	2	2	1	2	1	435	0	755.897114900014	0	0	0	0
344	4	2	2	1	2	1	591	0	757.869393700006	0	0	0	0
345	4	1	1	2	1	1	639	0	759.981283000001	0	0	0	0
346	4	2	2	2	2	1	883	0	762.137155900011	0	0	0	0
347	4	2	1	1	2	1	563	0	764.55352690001	0	0	0	0
348	4	2	2	2	2	1	466	0	766.634412300002	0	0	0	0
349	4	2	1	1	2	1	400	0	768.63748450001	0	0	0	0
350	4	1	1	1	1	1	532	0	770.5684817	0	0	0	0
351	4	2	1	2	2	1	373	0	772.6305689	0	0	0	0
352	4	1	1	1	1	1	708	0	774.535374100014	0	0	0	0
353	4	2	1	1	2	1	385	0	776.779239200012	0	0	0	0
354	4	2	2	1	2	1	577	0	778.69923920001	0	0	0	0
355	4	2	2	1	2	1	462	0	780.798722100008	0	0	0	0
356	4	1	1	2	1	1	578	0	782.7793982	0	0	0	0
357	4	2	2	2	2	1	606	0	784.8772666	0	0	0	0
358	4	1	1	2	1	1	481	0	787.003355000008	0	0	0	0
359	4	2	1	2	2	1	634	0	789.011313400013	0	0	0	0
360	4	1	1	1	1	1	513	0	791.179258600008	0	0	0	0
361	4	2	2	1	2	1	646	0	793.222085500005	0	0	0	0
362	4	1	2	2	1	1	579	0	795.385062800007	0	0	0	0
363	4	1	1	1	1	1	426	0	797.489407100002	0	0	0	0
364	4	1	2	2	1	1	621	0	799.439108100007	0	0	0	0
365	4	2	1	1	2	1	488	0	801.58815760001	0	0	0	0
366	4	2	1	1	2	1	366	0	803.598578600009	0	0	0	0
367	4	2	1	2	2	1	335	0	805.485315600003	0	0	0	0
368	4	2	1	2	2	1	399	0	807.340500800012	0	0	0	0
369	4	2	1	2	2	1	349	0	809.27904780001	0	0	0	0
370	4	1	1	2	1	1	433	0	811.147092000014	0	0	0	0
371	4	1	2	1	1	1	579	0	813.113334600013	0	0	0	0
372	4	2	1	2	1	2	446	0	815.230328500009	0	0	0	0
373	4	1	1	1	1	1	673	0	817.194119700012	0	0	0	0
374	4	2	1	2	2	1	459	0	819.393148800009	0	0	0	0
375	4	2	1	2	2	1	486	0	821.381268000012	0	0	0	0
376	4	1	2	1	1	1	582	0	823.397558500001	0	0	0	0
377	4	1	2	2	1	1	509	0	825.50296920001	0	0	0	0
378	4	2	2	1	2	1	606	0	827.533435100006	0	0	0	0
379	4	2	2	2	2	1	870	0	829.669299700006	0	0	0	0
380	4	2	1	2	2	1	600	0	832.067516800002	0	0	0	0
381	4	1	1	1	1	1	644	0	834.184119800004	0	0	0	0
382	4	2	2	2	2	1	700	0	836.351086500013	0	0	0	0
383	4	2	2	1	2	1	626	0	838.570026200003	0	0	0	0
384	4	2	1	1	2	1	479	0	840.717216200006	0	0	0	0
