Trial	Block	stimside	congruentcondition	colors	respside	accuracy	RT	reward	trialtime	tmstime	query	qresp	qrt
1	1	2	2	1	0	99	0	0	-0.0258910655975342	0	0	0	0
2	1	1	2	2	2	2	359	0	2.55659627914429	0	0	0	0
3	1	1	1	2	0	99	0	0	4.47264862060547	0	0	0	0
4	1	1	2	2	1	1	500	0	7.05514168739319	0	0	0	0
5	1	1	2	1	1	1	394	0	9.12112522125244	0	0	0	0
6	1	2	2	2	2	1	379	0	11.1038126945496	0	0	0	0
7	1	1	2	2	1	1	381	0	13.0698308944702	0	0	0	0
8	1	2	1	1	2	1	400	0	15.019198179245	0	0	0	0
9	1	2	1	1	2	1	427	0	16.9685642719269	0	0	0	0
10	1	2	1	1	2	1	307	0	18.9679145812988	0	0	0	0
11	1	2	1	2	2	1	440	0	20.8672976493835	0	0	0	0
12	1	1	1	2	1	1	488	0	22.883296251297	0	0	0	0
13	1	1	1	2	1	1	399	0	24.9326312541962	0	0	0	0
14	1	2	1	1	2	1	432	0	26.9153206348419	0	0	0	0
15	1	1	1	1	1	1	328	0	28.9146633148193	0	0	0	0
16	1	2	1	2	2	1	357	0	30.8140461444855	0	0	0	0
17	1	1	2	2	2	2	336	0	32.7467443943024	0	0	0	0
18	1	2	1	2	2	1	596	0	34.6627883911133	0	0	0	0
19	1	1	2	2	1	1	415	0	36.8120753765106	0	0	0	0
20	1	1	2	2	1	1	400	0	38.7947795391083	0	0	0	0
21	1	1	2	1	1	1	411	0	40.7441265583038	0	0	0	0
22	1	1	1	1	1	1	308	0	42.7268233299255	0	0	0	0
23	1	1	1	1	1	1	386	0	44.6095407009125	0	0	0	0
24	1	1	2	1	1	1	309	0	46.5422441959381	0	0	0	0
25	1	2	1	2	2	1	498	0	48.4249646663666	0	0	0	0
26	1	2	1	1	2	1	272	0	50.4909536838531	0	0	0	0
27	1	1	1	1	1	1	326	0	52.3570072650909	0	0	0	0
28	1	1	2	1	1	1	418	0	54.2730603218079	0	0	0	0
29	1	2	2	2	1	2	298	0	56.2890641689301	0	0	0	0
30	1	2	1	1	2	1	312	0	58.1384541988373	0	0	0	0
31	1	1	2	1	2	2	334	0	60.0211820602417	0	0	0	0
32	1	2	1	1	2	1	370	0	61.9372224807739	0	0	0	0
33	1	1	1	1	1	1	285	0	63.8699214458466	0	0	0	0
34	1	1	1	1	1	1	300	0	65.7193109989166	0	0	0	0
35	1	2	1	1	1	2	427	0	67.5687136650085	0	0	0	0
36	1	2	2	1	2	1	747	0	69.5680575370789	0	0	0	0
37	1	2	1	1	2	1	295	0	71.8839704990387	0	0	0	0
38	1	2	2	1	2	1	572	0	73.7666916847229	0	0	0	0
39	1	2	2	2	2	1	351	0	75.9159843921661	0	0	0	0
40	1	1	2	1	1	1	467	0	77.8320276737213	0	0	0	0
41	1	1	1	1	1	1	435	0	79.848025560379	0	0	0	0
42	1	1	1	1	1	1	355	0	81.8473799228668	0	0	0	0
43	1	1	1	2	1	1	327	0	83.7800893783569	0	0	0	0
44	1	2	1	1	2	1	355	0	85.67946434021	0	0	0	0
45	1	2	2	2	1	2	295	0	87.5955114364624	0	0	0	0
46	1	1	2	2	1	1	566	0	89.461567401886	0	0	0	0
47	1	2	2	1	2	1	505	0	91.5942063331604	0	0	0	0
48	1	1	2	1	1	1	429	0	93.6935112476349	0	0	0	0
49	1	1	2	2	1	1	357	0	95.7095282077789	0	0	0	0
50	1	1	1	2	1	1	312	0	97.6422300338745	0	0	0	0
51	1	1	1	2	1	1	302	0	99.5249392986298	0	0	0	0
52	1	1	1	2	1	1	293	0	101.374339342117	0	0	0	0
53	1	2	2	2	1	2	370	0	103.257063865662	0	0	0	0
54	1	2	2	1	2	1	429	0	105.189762353897	0	0	0	0
55	1	1	1	2	2	2	454	0	107.189106464386	0	0	0	0
56	1	2	2	2	2	1	542	0	109.205124139786	0	0	0	0
57	1	1	2	2	1	1	314	0	111.304433584213	0	0	0	0
58	1	1	1	2	1	1	320	0	113.1704890728	0	0	0	0
59	1	1	2	2	1	1	381	0	115.053202867508	0	0	0	0
60	1	2	1	1	1	2	289	0	116.985911369324	0	0	0	0
61	1	1	1	2	1	1	752	0	118.835305690765	0	0	0	0
62	1	2	1	2	2	1	236	0	121.134559392929	0	0	0	0
63	1	2	1	2	2	1	301	0	122.917314291	0	0	0	0
64	1	1	1	1	1	1	436	0	124.766704320908	0	0	0	0
65	1	2	1	2	2	1	508	0	126.766057491302	0	0	0	0
66	1	2	2	1	2	1	650	0	128.848710298538	0	0	0	0
67	1	2	1	2	2	1	498	0	131.047990322113	0	0	0	0
68	1	2	2	1	2	1	408	0	133.113979101181	0	0	0	0
69	1	2	2	1	2	1	251	0	135.080007553101	0	0	0	0
70	1	1	1	2	1	1	746	0	136.896077632904	0	0	0	0
71	1	2	2	1	2	1	463	0	139.195329427719	0	0	0	0
72	1	1	2	2	2	2	335	0	141.211333751678	0	0	0	0
73	1	1	2	2	1	1	565	0	143.094046354294	0	0	0	0
74	1	2	2	2	2	1	449	0	145.210021495819	0	0	0	0
75	1	2	2	2	2	1	425	0	147.209381103516	0	0	0	0
76	1	2	2	1	2	1	377	0	149.208728790283	0	0	0	0
77	1	2	1	2	2	1	300	0	151.158081293106	0	0	0	0
78	1	2	2	2	2	1	291	0	153.007483720779	0	0	0	0
79	1	1	1	1	1	1	554	0	154.856874704361	0	0	0	0
80	1	2	2	1	2	1	494	0	156.956186532974	0	0	0	0
81	1	1	2	1	1	1	581	0	159.02217912674	0	0	0	0
82	1	1	2	1	1	1	383	0	161.154827356339	0	0	0	0
83	1	2	2	1	2	1	355	0	163.087527751923	0	0	0	0
84	1	2	1	2	2	1	295	0	164.98690700531	0	0	0	0
85	1	2	2	2	1	2	318	0	166.83630156517	0	0	0	0
86	1	2	1	2	2	1	532	0	168.702355384827	0	0	0	0
87	1	2	2	2	2	1	281	0	170.78501033783	0	0	0	0
88	1	2	1	1	2	1	288	0	172.617745161057	0	0	0	0
89	1	2	1	2	2	1	360	0	174.450482606888	0	0	0	0
90	1	1	2	1	2	2	364	0	176.36652135849	0	0	0	0
91	1	1	1	1	1	1	487	0	178.282565355301	0	0	0	0
92	1	1	1	2	1	1	406	0	180.331891536713	0	0	0	0
93	1	1	2	1	2	2	320	0	182.297912120819	0	0	0	0
94	1	2	2	2	2	1	422	0	184.163981437683	0	0	0	0
95	1	1	1	1	2	2	352	0	186.146668195724	0	0	0	0
96	1	1	2	1	1	1	404	0	188.046041250229	0	0	0	0
97	2	2	1	2	2	1	360	0	211.12184047699	0	0	0	0
98	2	1	2	2	1	1	524	0	213.054535627365	0	0	0	0
99	2	2	1	2	2	1	465	0	215.137196540833	0	0	0	0
100	2	2	1	1	2	1	273	0	217.153207540512	0	0	0	0
101	2	2	1	1	2	1	376	0	218.985946416855	0	0	0	0
102	2	2	2	1	2	1	491	0	220.918639421463	0	0	0	0
103	2	1	1	2	1	1	401	0	222.984637260437	0	0	0	0
104	2	1	2	1	2	2	11	0	224.933994531631	0	0	0	0
105	2	2	2	2	2	1	14	0	226.500158309937	0	0	0	0
106	2	1	2	2	1	1	519	0	228.082963705063	0	0	0	0
107	2	2	2	2	2	1	309	0	230.148976325989	0	0	0	0
108	2	1	2	1	2	2	346	0	232.031714439392	0	0	0	0
109	2	2	2	2	2	1	583	0	233.931111097336	0	0	0	0
110	2	1	2	2	1	1	426	0	236.063774347305	0	0	0	0
111	2	2	2	1	1	2	299	0	238.04647231102	0	0	0	0
112	2	2	1	2	2	1	922	0	239.895884275436	0	0	0	0
113	2	2	1	2	2	1	407	0	242.378438234329	0	0	0	0
114	2	2	2	2	2	1	315	0	244.344473600388	0	0	0	0
115	2	2	1	2	2	1	255	0	246.210551261902	0	0	0	0
116	2	1	1	1	1	1	352	0	248.00998044014	0	0	0	0
117	2	1	2	2	2	2	332	0	249.909379243851	0	0	0	0
118	2	2	1	1	2	1	498	0	251.792107343674	0	0	0	0
119	2	1	2	2	2	2	368	0	253.841458797455	0	0	0	0
120	2	2	1	1	2	1	340	0	255.757524490356	0	0	0	0
121	2	1	1	1	1	1	297	0	257.656925439835	0	0	0	0
122	2	2	2	1	2	1	504	0	259.506334543228	0	0	0	0
123	2	2	1	1	2	1	269	0	261.572347640991	0	0	0	0
124	2	1	1	1	1	1	413	0	263.388437509537	0	0	0	0
125	2	1	2	1	1	1	520	0	265.354479551315	0	0	0	0
126	2	1	2	1	1	1	397	0	267.437153577805	0	0	0	0
127	2	2	2	1	2	1	295	0	269.38652586937	0	0	0	0
128	2	1	1	1	1	1	430	0	271.235950231552	0	0	0	0
129	2	2	1	1	2	1	368	0	273.218644380569	0	0	0	0
130	2	2	1	2	2	1	339	0	275.134710073471	0	0	0	0
131	2	1	1	1	1	1	360	0	277.034111976624	0	0	0	0
132	2	2	1	2	2	1	276	0	278.950169801712	0	0	0	0
133	2	2	2	1	2	1	267	0	280.782913208008	0	0	0	0
134	2	2	1	1	2	1	276	0	282.599006891251	0	0	0	0
135	2	1	1	1	1	1	386	0	284.448414564133	0	0	0	0
136	2	1	1	2	1	1	412	0	286.397796392441	0	0	0	0
137	2	1	1	2	1	1	534	0	288.380505084991	0	0	0	0
138	2	1	2	1	2	2	459	0	290.463172912598	0	0	0	0
139	2	1	2	2	1	1	563	0	292.479188919067	0	0	0	0
140	2	1	1	1	2	2	639	0	294.595195531845	0	0	0	0
141	2	2	2	2	2	1	416	0	296.79448890686	0	0	0	0
142	2	1	2	1	1	1	609	0	298.777202367783	0	0	0	0
143	2	2	2	2	1	2	475	0	300.943181753159	0	0	0	0
144	2	2	2	2	2	1	337	0	302.992527246475	0	0	0	0
145	2	2	2	1	2	1	359	0	304.87526345253	0	0	0	0
146	2	2	2	1	2	1	355	0	306.791320562363	0	0	0	0
147	2	2	1	1	1	2	486	0	308.707370281219	0	0	0	0
148	2	2	1	2	2	1	333	0	310.756725549698	0	0	0	0
149	2	1	2	2	1	1	394	0	312.639457464218	0	0	0	0
150	2	2	2	2	1	2	349	0	314.588844299316	0	0	0	0
151	2	2	1	2	2	1	602	0	316.488235473633	0	0	0	0
152	2	1	2	1	1	1	604	0	318.654217243195	0	0	0	0
153	2	2	2	1	2	1	494	0	320.82019329071	0	0	0	0
154	2	2	2	1	2	1	485	0	322.86954164505	0	0	0	0
155	2	1	1	2	1	1	492	0	324.918889284134	0	0	0	0
156	2	1	1	2	1	1	417	0	326.984899520874	0	0	0	0
157	2	1	1	2	1	1	490	0	328.967601537704	0	0	0	0
158	2	1	2	2	2	2	336	0	331.033610343933	0	0	0	0
159	2	1	2	2	1	1	606	0	332.916346311569	0	0	0	0
160	2	2	1	2	1	2	304	0	335.082318544388	0	0	0	0
161	2	2	2	2	2	1	398	0	336.931732416153	0	0	0	0
162	2	1	2	2	1	1	537	0	338.881110668182	0	0	0	0
163	2	1	1	1	2	2	614	0	340.980444669724	0	0	0	0
164	2	2	2	1	2	1	552	0	343.146418571472	0	0	0	0
165	2	2	1	1	2	1	612	0	345.245749473572	0	0	0	0
166	2	2	2	1	2	1	294	0	347.411734342575	0	0	0	0
167	2	2	1	1	2	1	365	0	349.261144399643	0	0	0	0
168	2	1	2	1	1	1	417	0	351.17719745636	0	0	0	0
169	2	1	2	1	1	1	427	0	353.143235683441	0	0	0	0
170	2	2	2	2	1	2	356	0	355.125940084457	0	0	0	0
171	2	1	2	1	1	1	488	0	357.041993379593	0	0	0	0
172	2	1	1	1	1	1	487	0	359.091341733932	0	0	0	0
173	2	1	1	2	1	1	326	0	361.140690565109	0	0	0	0
174	2	1	1	2	1	1	362	0	363.040085554123	0	0	0	0
175	2	2	1	1	2	1	12	0	364.972798347473	0	0	0	0
176	2	1	1	1	1	1	487	0	366.538965463638	0	0	0	0
177	2	1	2	1	2	2	462	0	368.588318347931	0	0	0	0
178	2	1	1	2	1	1	614	0	370.604323863983	0	0	0	0
179	2	1	2	2	1	1	319	0	372.786973237991	0	0	0	0
180	2	2	1	1	2	1	589	0	374.653051137924	0	0	0	0
181	2	1	2	2	2	2	320	0	376.802363634109	0	0	0	0
182	2	1	1	1	1	1	606	0	378.668432474136	0	0	0	0
183	2	2	1	2	2	1	432	0	380.834418535233	0	0	0	0
184	2	2	2	2	2	1	354	0	382.81711435318	0	0	0	0
185	2	2	1	2	2	1	349	0	384.733166456223	0	0	0	0
186	2	2	2	1	2	1	322	0	386.632563591003	0	0	0	0
187	2	1	1	2	2	2	400	0	388.498630523682	0	0	0	0
188	2	1	1	2	1	1	362	0	390.448011875153	0	0	0	0
189	2	2	2	2	1	2	406	0	392.3640666008	0	0	0	0
190	2	1	1	2	1	1	440	0	394.330112457275	0	0	0	0
191	2	1	1	1	1	1	409	0	396.329468250275	0	0	0	0
192	2	1	2	1	1	1	410	0	398.312170267105	0	0	0	0
193	3	2	2	1	2	1	565	0	408.925447225571	0	0	0	0
194	3	1	1	2	1	1	400	0	411.058106422424	0	0	0	0
195	3	1	1	2	1	1	467	0	413.007466077805	0	0	0	0
196	3	2	1	1	2	1	481	0	415.073487281799	0	0	0	0
197	3	2	1	2	2	1	384	0	417.106163263321	0	0	0	0
198	3	1	1	2	1	1	428	0	419.038891792297	0	0	0	0
199	3	2	1	2	2	1	501	0	421.021585226059	0	0	0	0
200	3	2	1	2	2	1	370	0	423.087590694427	0	0	0	0
201	3	1	1	1	1	1	372	0	425.05363035202	0	0	0	0
202	3	2	1	1	2	1	280	0	426.986342668533	0	0	0	0
203	3	2	2	1	1	2	432	0	428.83575797081	0	0	0	0
204	3	2	2	1	2	1	640	0	430.818447828293	0	0	0	0
205	3	1	2	1	1	1	577	0	433.017749547958	0	0	0	0
206	3	1	1	1	1	1	387	0	435.18373465538	0	0	0	0
207	3	1	2	2	2	2	366	0	437.133104324341	0	0	0	0
208	3	1	2	1	0	99	0	0	439.049160242081	0	0	0	0
209	3	2	2	2	2	1	554	0	441.664995193481	0	0	0	0
210	3	1	1	1	1	1	503	0	443.764316558838	0	0	0	0
211	3	1	2	2	1	1	411	0	445.846987485886	0	0	0	0
212	3	2	1	1	2	1	396	0	447.846339941025	0	0	0	0
213	3	1	2	2	1	1	646	0	449.812379360199	0	0	0	0
214	3	2	2	2	1	2	399	0	452.01168346405	0	0	0	0
215	3	2	1	1	2	1	553	0	453.977723836899	0	0	0	0
216	3	1	1	2	1	1	604	0	456.093717098236	0	0	0	0
217	3	1	1	1	1	1	615	0	458.259689331055	0	0	0	0
218	3	2	2	2	1	2	417	0	460.458989143372	0	0	0	0
219	3	1	2	1	1	1	560	0	462.458345651627	0	0	0	0
220	3	2	2	2	2	1	588	0	464.574332237244	0	0	0	0
221	3	1	1	2	1	1	591	0	466.723646640778	0	0	0	0
222	3	1	2	2	1	1	488	0	468.889617919922	0	0	0	0
223	3	2	2	1	2	1	439	0	470.938955068588	0	0	0	0
224	3	1	1	2	1	1	720	0	472.938318729401	0	0	0	0
225	3	1	1	1	1	1	533	0	475.237585306168	0	0	0	0
226	3	2	2	1	2	1	377	0	477.336919784546	0	0	0	0
227	3	1	1	2	1	1	548	0	479.26963019371	0	0	0	0
228	3	1	2	2	1	1	497	0	481.385619163513	0	0	0	0
229	3	2	1	1	2	1	639	0	483.434961080551	0	0	0	0
230	3	2	1	1	2	1	328	0	485.634264230728	0	0	0	0
231	3	2	1	2	2	1	302	0	487.516997098923	0	0	0	0
232	3	2	2	2	2	1	428	0	489.366392374039	0	0	0	0
233	3	2	2	2	2	1	389	0	491.365754127502	0	0	0	0
234	3	1	2	2	1	1	631	0	493.331792354584	0	0	0	0
235	3	1	1	2	1	1	359	0	495.547753810883	0	0	0	0
236	3	1	2	1	2	2	387	0	497.463807106018	0	0	0	0
237	3	1	1	2	1	1	654	0	499.396515607834	0	0	0	0
238	3	2	1	2	1	2	495	0	501.595808267593	0	0	0	0
239	3	2	2	2	2	1	421	0	503.645148038864	0	0	0	0
240	3	2	1	1	2	1	318	0	505.627860069275	0	0	0	0
241	3	2	2	1	2	1	355	0	507.527242422104	0	0	0	0
242	3	1	1	1	1	1	415	0	509.443301916122	0	0	0	0
243	3	1	2	2	1	1	457	0	511.409336566925	0	0	0	0
244	3	2	2	1	2	1	528	0	513.442024469376	0	0	0	0
245	3	1	2	2	1	1	503	0	515.524689674377	0	0	0	0
246	3	1	1	1	2	2	475	0	517.590697526932	0	0	0	0
247	3	1	2	1	1	1	675	0	519.623372554779	0	0	0	0
248	3	2	1	2	2	1	442	0	521.855991601944	0	0	0	0
249	3	2	1	2	2	1	635	0	523.855352401733	0	0	0	0
250	3	1	2	2	1	1	707	0	526.054651260376	0	0	0	0
251	3	2	1	2	2	1	650	0	528.320585489273	0	0	0	0
252	3	1	2	1	1	1	651	0	530.519878149033	0	0	0	0
253	3	2	2	1	2	1	419	0	532.719181776047	0	0	0	0
254	3	2	2	1	2	1	413	0	534.685212373734	0	0	0	0
255	3	2	2	2	2	1	478	0	536.667905330658	0	0	0	0
256	3	2	1	1	2	1	429	0	538.717253923416	0	0	0	0
257	3	2	1	2	2	1	390	0	540.716614246368	0	0	0	0
258	3	2	1	2	2	1	376	0	542.665982246399	0	0	0	0
259	3	2	1	1	2	1	348	0	544.598704338074	0	0	0	0
260	3	2	1	2	2	1	368	0	546.498092651367	0	0	0	0
261	3	1	1	1	0	99	0	0	548.447461128235	0	0	0	0
262	3	1	2	1	1	1	597	0	551.013305902481	0	0	0	0
263	3	1	2	1	1	1	336	0	553.162617683411	0	0	0	0
264	3	2	2	1	1	2	325	0	555.045350313187	0	0	0	0
265	3	1	1	2	1	1	498	0	556.928071498871	0	0	0	0
266	3	1	1	2	1	1	353	0	558.977416276932	0	0	0	0
267	3	2	2	2	1	2	293	0	560.893467664719	0	0	0	0
268	3	1	2	2	1	1	612	0	562.74288225174	0	0	0	0
269	3	2	1	1	2	1	294	0	564.908857584	0	0	0	0
270	3	2	1	1	2	1	324	0	566.758260250092	0	0	0	0
271	3	2	2	1	2	1	266	0	568.640990972519	0	0	0	0
272	3	1	1	1	1	1	505	0	570.473734617233	0	0	0	0
273	3	1	2	2	2	2	393	0	572.5397336483	0	0	0	0
274	3	1	2	1	0	99	0	0	574.518164634705	0	0	0	0
275	3	2	2	2	2	1	644	0	577.064002275467	0	0	0	0
276	3	1	1	2	0	99	0	0	579.348553180695	0	0	0	0
277	3	2	1	1	2	1	601	0	581.914396762848	0	0	0	0
278	3	1	2	1	2	2	379	0	584.063701629639	0	0	0	0
279	3	2	1	2	2	1	935	0	586.142500400543	0	0	0	0
280	3	2	2	2	1	2	426	0	588.784053325653	0	0	0	0
281	3	2	2	1	2	1	437	0	590.766760587692	0	0	0	0
282	3	1	2	1	1	1	493	0	592.749446868896	0	0	0	0
283	3	1	2	1	1	1	404	0	594.798797607422	0	0	0	0
284	3	1	1	1	1	1	438	0	596.748163700104	0	0	0	0
285	3	1	1	1	1	1	440	0	598.7308614254	0	0	0	0
286	3	2	2	2	2	1	392	0	600.713559389114	0	0	0	0
287	3	1	1	1	1	1	714	0	602.808871269226	0	0	0	0
288	3	1	2	2	1	1	669	0	605.061456441879	0	0	0	0
289	4	2	1	2	2	1	443	0	615.591416597366	0	0	0	0
290	4	2	1	2	2	1	409	0	617.577444553375	0	0	0	0
291	4	1	1	1	1	1	551	0	619.523482561111	0	0	0	0
292	4	2	2	1	1	2	410	0	621.616149902344	0	0	0	0
293	4	1	2	1	1	1	632	0	623.562178611755	0	0	0	0
294	4	2	1	2	2	1	547	0	625.734792470932	0	0	0	0
295	4	1	1	2	1	1	556	0	627.814150094986	0	0	0	0
296	4	1	1	1	1	1	527	0	629.906805992126	0	0	0	0
297	4	2	2	2	2	1	573	0	631.972823619843	0	0	0	0
298	4	1	1	1	1	1	494	0	634.092131614685	0	0	0	0
299	4	2	1	1	2	1	492	0	636.158123493195	0	0	0	0
300	4	2	1	2	2	1	450	0	638.224146366119	0	0	0	0
301	4	1	2	1	1	1	459	0	640.223487377167	0	0	0	0
302	4	1	1	1	1	1	577	0	642.233679533005	0	0	0	0
303	4	2	1	1	2	1	385	0	644.368809938431	0	0	0	0
304	4	2	1	1	2	1	368	0	646.314846038818	0	0	0	0
305	4	2	2	1	2	1	488	0	648.234232902527	0	0	0	0
306	4	2	2	1	2	1	472	0	650.273579359055	0	0	0	0
307	4	1	2	2	1	1	526	0	652.299590826035	0	0	0	0
308	4	2	2	1	2	1	399	0	654.378921985626	0	0	0	0
309	4	2	1	1	2	1	342	0	656.324947118759	0	0	0	0
310	4	1	2	1	1	1	544	0	658.217684030533	0	0	0	0
311	4	2	2	2	2	1	519	0	660.323681592941	0	0	0	0
312	4	1	1	2	1	1	420	0	662.389680147171	0	0	0	0
313	4	1	1	2	1	1	392	0	664.362359046936	0	0	0	0
314	4	1	2	1	1	1	390	0	666.308412790298	0	0	0	0
315	4	1	1	2	1	1	326	0	668.267779111862	0	0	0	0
316	4	1	2	2	1	1	450	0	670.160529851913	0	0	0	0
317	4	2	1	1	2	1	435	0	672.159863710403	0	0	0	0
318	4	1	1	2	1	1	416	0	674.145899534225	0	0	0	0
319	4	2	1	2	2	1	363	0	676.11860203743	0	0	0	0
320	4	1	1	1	1	1	541	0	678.037958860397	0	0	0	0
321	4	2	2	2	2	1	744	0	680.130626678467	0	0	0	0
322	4	2	1	1	2	1	357	0	682.436556100845	0	0	0	0
323	4	1	2	1	2	2	364	0	684.342605113983	0	0	0	0
324	4	2	1	2	2	1	567	0	686.275318145752	0	0	0	0
325	4	1	1	1	1	1	448	0	688.394632816315	0	0	0	0
326	4	2	2	2	2	1	504	0	690.39400601387	0	0	0	0
327	4	2	1	2	1	2	465	0	692.473333597183	0	0	0	0
328	4	2	2	1	2	1	644	0	694.485991239548	0	0	0	0
329	4	1	2	2	1	1	421	0	696.685302257538	0	0	0	0
330	4	1	1	1	1	1	368	0	698.657982110977	0	0	0	0
331	4	2	1	2	1	2	505	0	700.577380657196	0	0	0	0
332	4	1	2	2	2	2	417	0	702.656692028046	0	0	0	0
333	4	1	2	2	1	1	543	0	704.642747163773	0	0	0	0
334	4	1	1	1	1	1	563	0	706.735394716263	0	0	0	0
335	4	1	2	2	1	1	484	0	708.854706048965	0	0	0	0
336	4	1	2	2	1	1	391	0	710.907380819321	0	0	0	0
337	4	1	1	1	1	1	415	0	712.866747379303	0	0	0	0
338	4	1	1	2	1	1	365	0	714.852776288986	0	0	0	0
339	4	2	2	2	1	2	478	0	716.772149801254	0	0	0	0
340	4	1	2	2	1	1	654	0	718.811496019363	0	0	0	0
341	4	1	1	2	1	1	378	0	721.024131298065	0	0	0	0
342	4	2	2	2	1	2	408	0	722.97015953064	0	0	0	0
343	4	2	1	2	2	1	504	0	724.929537296295	0	0	0	0
344	4	2	1	2	2	1	337	0	727.008852005005	0	0	0	0
345	4	2	2	1	2	1	428	0	728.901583433151	0	0	0	0
346	4	1	2	1	1	1	784	0	730.874284267426	0	0	0	0
347	4	2	2	2	2	1	563	0	733.206844091415	0	0	0	0
348	4	1	1	2	1	1	551	0	735.339515447617	0	0	0	0
349	4	2	2	1	2	1	444	0	737.445498228073	0	0	0	0
350	4	1	2	1	1	1	536	0	739.458172798157	0	0	0	0
351	4	1	2	2	1	1	539	0	741.550835132599	0	0	0	0
352	4	2	2	2	2	1	590	0	743.643493890762	0	0	0	0
353	4	1	1	2	1	1	503	0	745.802813529968	0	0	0	0
354	4	1	2	1	2	2	440	0	747.88213300705	0	0	0	0
355	4	1	1	1	1	1	484	0	749.894817113876	0	0	0	0
356	4	1	1	2	1	1	548	0	751.934150934219	0	0	0	0
357	4	2	1	1	2	1	594	0	754.040152072906	0	0	0	0
358	4	1	1	2	1	1	505	0	756.186121702194	0	0	0	0
359	4	2	1	1	2	1	616	0	758.265430212021	0	0	0	0
360	4	2	2	1	2	1	366	0	760.45140337944	0	0	0	0
361	4	2	1	1	2	1	431	0	762.370774030685	0	0	0	0
362	4	1	2	1	1	1	693	0	764.356812477112	0	0	0	0
363	4	2	2	2	2	1	566	0	766.596096992493	0	0	0	0
364	4	2	1	1	2	1	321	0	768.72874546051	0	0	0	0
365	4	2	2	1	2	1	413	0	770.621457576752	0	0	0	0
366	4	2	1	1	2	1	390	0	772.580837011337	0	0	0	0
367	4	2	2	1	2	1	381	0	774.526861190796	0	0	0	0
368	4	1	2	2	1	1	486	0	776.45956325531	0	0	0	0
369	4	2	1	2	2	1	514	0	778.512244462967	0	0	0	0
370	4	2	1	2	2	1	496	0	780.578256130219	0	0	0	0
371	4	1	1	1	1	1	542	0	782.644253492355	0	0	0	0
372	4	1	1	2	2	2	433	0	784.73690700531	0	0	0	0
373	4	1	2	1	1	1	855	0	786.722932100296	0	0	0	0
374	4	1	2	2	1	1	491	0	789.135479211807	0	0	0	0
375	4	2	1	1	2	1	414	0	791.188153028488	0	0	0	0
376	4	1	2	1	1	1	636	0	793.174178123474	0	0	0	0
377	4	2	2	2	2	1	514	0	795.360150337219	0	0	0	0
378	4	1	2	1	1	1	624	0	797.426153421402	0	0	0	0
379	4	1	1	1	1	1	404	0	799.598775625229	0	0	0	0
380	4	2	2	1	2	1	571	0	801.558153390884	0	0	0	0
381	4	2	2	1	2	1	306	0	803.704130172729	0	0	0	0
382	4	2	2	2	2	1	298	0	805.583510398865	0	0	0	0
383	4	2	2	2	2	1	357	0	807.436250686646	0	0	0	0
384	4	1	2	2	1	1	580	0	809.342297315598	0	0	0	0
