Trial	Block	stimside	congruentcondition	colors	respside	accuracy	RT	reward	trialtime	tmstime	query	qresp	qrt
1	1	2	1	1	2	1	525	0	-0.0114017478836104	0	0	0	0
2	1	1	2	1	2	2	459	0	2.07118394340614	0	0	0	0
3	1	1	2	1	0	99	0	0	4.08756784489833	0	0	0	0
4	1	1	1	1	1	1	276	0	6.66953978108631	0	0	0	0
5	1	1	2	1	1	1	587	0	8.51887807964249	0	0	0	0
6	1	1	2	2	2	2	471	0	10.6681117796425	0	0	0	0
7	1	1	1	1	1	1	246	0	12.700732265158	0	0	0	0
8	1	2	1	1	2	1	574	0	14.5000892086127	0	0	0	0
9	1	1	2	1	2	2	409	0	16.6326351550033	0	0	0	0
10	1	1	1	2	1	1	299	0	18.6152736578906	0	0	0	0
11	1	2	1	2	1	2	513	0	20.4646204028386	0	0	0	0
12	1	2	1	2	2	1	591	0	22.5472057448496	0	0	0	0
13	1	1	2	1	2	2	376	0	24.7130937941274	0	0	0	0
14	1	2	2	2	1	2	267	0	26.6629753448988	0	0	0	0
15	1	2	1	1	2	1	532	0	28.4950661071698	0	0	0	0
16	1	1	1	2	1	1	304	0	30.594954844898	0	0	0	0
17	1	2	1	2	2	1	438	0	32.4603178187672	0	0	0	0
18	1	1	2	2	1	1	565	0	34.4600602448982	0	0	0	0
19	1	1	1	2	1	1	481	0	36.5921871028386	0	0	0	0
20	1	2	1	1	2	1	240	0	38.6419185448985	0	0	0	0
21	1	2	2	1	1	2	264	0	40.4412298448988	0	0	0	0
22	1	1	1	1	1	1	353	0	42.2735079028389	0	0	0	0
23	1	2	1	1	2	1	388	0	44.1894724202102	0	0	0	0
24	1	2	2	1	2	1	231	0	46.138764631809	0	0	0	0
25	1	2	2	1	1	2	351	0	47.9385486448982	0	0	0	0
26	1	1	1	1	1	1	405	0	49.8374543578911	0	0	0	0
27	1	2	1	1	2	1	245	0	51.820099252117	0	0	0	0
28	1	2	1	1	2	1	333	0	53.6366777448984	0	0	0	0
29	1	1	1	2	1	1	308	0	55.5187779274775	0	0	0	0
30	1	1	1	2	1	1	313	0	57.3847532796426	0	0	0	0
31	1	1	2	1	1	1	313	0	59.3840471578915	0	0	0	0
32	1	2	2	2	2	1	362	0	61.3999990651573	0	0	0	0
33	1	2	2	1	1	2	314	0	63.3993068521168	0	0	0	0
34	1	1	2	1	2	2	299	0	65.3985676202101	0	0	0	0
35	1	2	2	2	2	1	588	0	67.398267444898	0	0	0	0
36	1	2	2	1	1	2	279	0	69.547433544898	0	0	0	0
37	1	2	2	2	2	1	574	0	71.3964409071696	0	0	0	0
38	1	1	1	2	1	1	329	0	73.5290025550039	0	0	0	0
39	1	2	2	1	1	2	382	0	75.4120464448979	0	0	0	0
40	1	2	1	2	2	1	287	0	77.3942809028385	0	0	0	0
41	1	1	2	2	1	1	432	0	79.3941829448986	0	0	0	0
42	1	1	2	1	2	2	257	0	81.3933308448986	0	0	0	0
43	1	1	2	1	1	1	537	0	83.2088591086131	0	0	0	0
44	1	2	2	2	1	2	306	0	85.3914122970154	0	0	0	0
45	1	2	2	2	1	2	355	0	87.3907232651572	0	0	0	0
46	1	2	1	1	2	1	307	0	89.3903582448984	0	0	0	0
47	1	1	1	2	2	2	228	0	91.3898114448984	0	0	0	0
48	1	2	2	1	1	2	351	0	93.1719688781996	0	0	0	0
49	1	2	2	2	0	99	0	0	95.0879744651575	0	0	0	0
50	1	1	1	1	2	2	652	0	97.6541807448984	0	0	0	0
51	1	2	1	1	2	1	388	0	99.8700211448986	0	0	0	0
52	1	2	2	2	1	2	327	0	101.818890346292	0	0	0	0
53	1	2	2	1	2	1	444	0	103.701545005725	0	0	0	0
54	1	1	2	2	1	1	493	0	105.717489628921	0	0	0	0
55	1	1	2	1	1	1	571	0	107.76676848253	0	0	0	0
56	1	1	1	1	2	2	263	0	109.899774244898	0	0	0	0
57	1	1	1	1	1	1	318	0	111.73202182021	0	0	0	0
58	1	1	2	1	2	2	275	0	113.614700192685	0	0	0	0
59	1	2	2	2	1	2	299	0	115.447360840519	0	0	0	0
60	1	2	1	2	1	2	573	0	117.397024044898	0	0	0	0
61	1	1	2	2	0	99	0	0	119.512582215879	0	0	0	0
62	1	1	1	2	1	1	386	0	122.095453444898	0	0	0	0
63	1	2	1	2	2	1	277	0	124.044600444899	0	0	0	0
64	1	1	1	1	2	2	221	0	125.877370544898	0	0	0	0
65	1	1	2	2	1	1	390	0	127.643541444898	0	0	0	0
66	1	1	2	2	2	2	377	0	129.592920244898	0	0	0	0
67	1	2	1	2	0	99	0	0	131.525569144898	0	0	0	0
68	1	2	2	2	2	1	647	0	134.107739344899	0	0	0	0
69	1	1	1	1	2	2	493	0	136.406542695571	0	0	0	0
70	1	1	1	1	2	2	506	0	138.455810066602	0	0	0	0
71	1	1	2	2	1	1	536	0	140.522118244899	0	0	0	0
72	1	2	2	2	2	1	597	0	142.604909444898	0	0	0	0
73	1	2	1	2	1	2	299	0	144.887382244899	0	0	0	0
74	1	1	1	2	2	2	317	0	146.886134065157	0	0	0	0
75	1	2	1	2	0	99	0	0	148.885783744899	0	0	0	0
76	1	1	2	2	1	1	791	0	151.451165017324	0	0	0	0
77	1	1	1	2	2	2	281	0	153.800316007169	0	0	0	0
78	1	2	1	2	2	1	447	0	155.650065444898	0	0	0	0
79	1	1	1	1	2	2	385	0	157.648940730364	0	0	0	0
80	1	1	1	2	1	1	468	0	159.581588728921	0	0	0	0
81	1	2	2	1	2	1	468	0	161.614209057891	0	0	0	0
82	1	2	2	1	2	1	403	0	163.647330844899	0	0	0	0
83	1	1	1	1	1	1	310	0	165.613143244898	0	0	0	0
84	1	2	2	2	1	2	283	0	167.478782865158	0	0	0	0
85	1	2	1	1	2	1	270	0	169.395243044898	0	0	0	0
86	1	2	1	2	2	1	391	0	171.227432779642	0	0	0	0
87	1	1	2	2	1	1	569	0	173.17674362021	0	0	0	0
88	1	2	1	1	2	1	321	0	175.392618741963	0	0	0	0
89	1	1	2	2	1	1	322	0	177.392318344899	0	0	0	0
90	1	2	2	1	2	1	483	0	179.391201965158	0	0	0	0
91	1	2	2	1	1	2	306	0	181.440907844898	0	0	0	0
92	1	2	1	1	2	1	324	0	183.406412108613	0	0	0	0
93	1	1	2	2	1	1	259	0	185.406038044898	0	0	0	0
94	1	1	2	1	2	2	363	0	187.222174644899	0	0	0	0
95	1	1	1	2	1	1	448	0	189.138332044899	0	0	0	0
96	1	2	1	2	1	2	256	0	191.153650128921	0	0	0	0
97	2	1	2	1	2	2	705	0	256.880585944898	0	0	0	0
98	2	2	2	1	2	1	312	0	259.146482444899	0	0	0	0
99	2	1	1	1	1	1	303	0	261.012022033252	0	0	0	0
100	2	1	1	2	1	1	244	0	262.878031405725	0	0	0	0
101	2	2	2	2	2	1	364	0	264.677867544899	0	0	0	0
102	2	1	1	1	1	1	284	0	266.610052495571	0	0	0	0
103	2	1	1	1	1	1	519	0	268.459375895571	0	0	0	0
104	2	1	2	1	2	2	351	0	270.541970640518	0	0	0	0
105	2	2	2	1	1	2	281	0	272.441697144898	0	0	0	0
106	2	2	2	1	2	1	431	0	274.290643102839	0	0	0	0
107	2	2	2	1	2	1	219	0	276.423552144898	0	0	0	0
108	2	2	1	2	2	1	276	0	278.206274944899	0	0	0	0
109	2	2	1	1	1	2	268	0	280.038581717324	0	0	0	0
110	2	1	2	2	1	1	468	0	281.854603189797	0	0	0	0
111	2	2	2	1	2	1	308	0	283.88719898253	0	0	0	0
112	2	1	1	2	1	1	360	0	285.753701544898	0	0	0	0
113	2	1	1	2	1	1	285	0	287.669193155003	0	0	0	0
114	2	1	2	1	2	2	372	0	289.501876227478	0	0	0	0
115	2	1	2	2	1	1	456	0	291.417859407169	0	0	0	0
116	2	1	1	1	1	1	249	0	293.434150144898	0	0	0	0
117	2	2	2	2	2	1	305	0	295.233164856447	0	0	0	0
118	2	2	1	1	2	1	359	0	297.099161365158	0	0	0	0
119	2	2	1	1	2	1	282	0	299.015519444898	0	0	0	0
120	2	2	2	1	2	1	240	0	300.881437244899	0	0	0	0
121	2	2	2	2	2	1	281	0	302.680838444899	0	0	0	0
122	2	1	2	1	2	2	257	0	304.513157407169	0	0	0	0
123	2	2	1	1	2	1	441	0	306.329171155004	0	0	0	0
124	2	2	2	2	1	2	261	0	308.428450889797	0	0	0	0
125	2	1	2	1	1	1	542	0	310.244456569489	0	0	0	0
126	2	1	1	1	2	2	231	0	312.427461844898	0	0	0	0
127	2	2	1	2	2	1	528	0	314.210078744898	0	0	0	0
128	2	2	1	1	1	2	312	0	316.425579017324	0	0	0	0
129	2	1	2	2	1	1	655	0	318.291591328921	0	0	0	0
130	2	1	1	1	1	1	262	0	320.507445728921	0	0	0	0
131	2	2	1	2	2	1	398	0	322.340593644898	0	0	0	0
132	2	2	2	2	2	1	219	0	324.422726965157	0	0	0	0
133	2	2	2	2	2	1	389	0	326.188754618767	0	0	0	0
134	2	1	2	2	2	2	249	0	328.121392504282	0	0	0	0
135	2	1	2	2	1	1	450	0	329.937431002839	0	0	0	0
136	2	1	1	2	1	1	289	0	331.953377383974	0	0	0	0
137	2	2	2	1	1	2	263	0	333.803025844898	0	0	0	0
138	2	1	2	1	2	2	286	0	335.619201844898	0	0	0	0
139	2	1	2	1	1	1	647	0	337.46806188253	0	0	0	0
140	2	1	2	2	1	1	445	0	339.684298444899	0	0	0	0
141	2	2	2	2	1	2	253	0	341.700511744898	0	0	0	0
142	2	1	2	2	1	1	518	0	343.516293244898	0	0	0	0
143	2	1	1	2	1	1	260	0	345.599081744898	0	0	0	0
144	2	1	1	2	1	1	283	0	347.431583644899	0	0	0	0
145	2	2	2	1	1	2	301	0	349.397528644899	0	0	0	0
146	2	1	1	2	1	1	381	0	351.41308322021	0	0	0	0
147	2	2	1	1	2	1	271	0	353.412369566602	0	0	0	0
148	2	1	1	1	2	2	262	0	355.228796044898	0	0	0	0
149	2	1	2	1	0	99	0	0	357.044885744898	0	0	0	0
150	2	2	1	2	2	1	488	0	359.610175389796	0	0	0	0
151	2	2	2	2	2	1	614	0	361.659837044898	0	0	0	0
152	2	2	1	1	2	1	304	0	363.841974594127	0	0	0	0
153	2	1	2	2	1	1	534	0	365.707978192684	0	0	0	0
154	2	1	1	2	1	1	675	0	367.790565330364	0	0	0	0
155	2	2	2	2	2	1	284	0	370.023532144898	0	0	0	0
156	2	2	1	2	2	1	321	0	371.872863744898	0	0	0	0
157	2	2	1	2	2	1	263	0	373.755128552117	0	0	0	0
158	2	1	2	2	2	2	303	0	375.587782295571	0	0	0	0
159	2	1	2	1	2	2	500	0	377.454177044899	0	0	0	0
160	2	2	2	1	1	2	259	0	379.503554644898	0	0	0	0
161	2	2	2	2	2	1	408	0	381.402385327478	0	0	0	0
162	2	2	1	1	2	1	248	0	383.402119444899	0	0	0	0
163	2	2	1	2	2	1	304	0	385.218191644898	0	0	0	0
164	2	1	1	1	1	1	311	0	387.084065144898	0	0	0	0
165	2	1	2	1	2	2	301	0	388.949685792684	0	0	0	0
166	2	2	1	1	1	2	415	0	390.898996565157	0	0	0	0
167	2	2	2	1	1	2	352	0	392.89826782021	0	0	0	0
168	2	2	1	1	2	1	272	0	394.897905844899	0	0	0	0
169	2	2	1	2	1	2	344	0	396.730789044898	0	0	0	0
170	2	1	2	1	2	2	285	0	398.629546730364	0	0	0	0
171	2	2	2	2	2	1	579	0	400.478901679643	0	0	0	0
172	2	1	2	2	2	2	284	0	402.611838144899	0	0	0	0
173	2	2	2	1	1	2	245	0	404.461390644899	0	0	0	0
174	2	1	1	2	1	1	462	0	406.260161595571	0	0	0	0
175	2	1	1	1	1	1	520	0	408.426042530365	0	0	0	0
176	2	2	1	2	2	1	374	0	410.50864599124	0	0	0	0
177	2	1	1	1	2	2	250	0	412.425230644898	0	0	0	0
178	2	1	2	1	1	1	545	0	414.240663065158	0	0	0	0
179	2	1	1	1	1	1	299	0	416.423211365158	0	0	0	0
180	2	2	2	2	1	2	321	0	418.273032744898	0	0	0	0
181	2	2	1	2	1	2	600	0	420.13853919124	0	0	0	0
182	2	2	1	2	2	1	397	0	422.421042557891	0	0	0	0
183	2	2	1	1	2	1	366	0	424.420857144898	0	0	0	0
184	2	1	2	2	2	2	382	0	426.420073944898	0	0	0	0
185	2	1	1	1	1	1	352	0	428.418899857891	0	0	0	0
186	2	2	2	1	1	2	256	0	430.418579944899	0	0	0	0
187	2	1	1	2	1	1	457	0	432.218138344899	0	0	0	0
188	2	1	1	2	2	2	312	0	434.233884644898	0	0	0	0
189	2	1	2	2	1	1	413	0	436.116595844898	0	0	0	0
190	2	2	1	2	2	1	319	0	438.098778483974	0	0	0	0
191	2	2	1	1	2	1	373	0	439.964795269489	0	0	0	0
192	2	1	1	2	1	1	312	0	441.897853944898	0	0	0	0
193	3	2	1	1	2	1	715	0	466.455751244898	0	0	0	0
194	3	2	2	1	1	2	257	0	468.721185104282	0	0	0	0
195	3	2	2	2	1	2	367	0	470.537608844898	0	0	0	0
196	3	1	1	2	2	2	237	0	472.45318509124	0	0	0	0
197	3	1	2	2	1	1	453	0	474.253126544898	0	0	0	0
198	3	1	2	1	1	1	581	0	476.268804144898	0	0	0	0
199	3	2	2	1	2	1	256	0	478.43438268253	0	0	0	0
200	3	2	2	1	1	2	296	0	480.25039668253	0	0	0	0
201	3	2	1	1	2	1	270	0	482.099742179643	0	0	0	0
202	3	1	2	1	1	1	438	0	483.916244044898	0	0	0	0
203	3	2	2	1	1	2	279	0	485.915452744898	0	0	0	0
204	3	1	1	2	1	1	733	0	487.764857944899	0	0	0	0
205	3	2	2	2	1	2	291	0	490.063565420211	0	0	0	0
206	3	2	2	1	2	1	346	0	491.913408644898	0	0	0	0
207	3	1	2	1	2	2	254	0	493.812229507169	0	0	0	0
208	3	2	2	2	1	2	311	0	495.611581204282	0	0	0	0
209	3	2	2	1	2	1	380	0	497.494679144898	0	0	0	0
210	3	1	2	1	2	2	239	0	499.426893752116	0	0	0	0
211	3	2	1	2	2	1	408	0	501.226232304281	0	0	0	0
212	3	2	1	1	2	1	361	0	503.20887129124	0	0	0	0
213	3	1	2	2	2	2	510	0	505.124850015879	0	0	0	0
214	3	1	2	1	2	2	268	0	507.191190444898	0	0	0	0
215	3	1	1	1	1	1	275	0	509.023886644898	0	0	0	0
216	3	1	1	2	1	1	312	0	510.906122568045	0	0	0	0
217	3	1	2	2	2	2	377	0	512.905410289797	0	0	0	0
218	3	1	2	1	1	1	442	0	514.904692028921	0	0	0	0
219	3	1	2	2	1	1	426	0	516.903982257891	0	0	0	0
220	3	2	2	2	1	2	266	0	518.903754744898	0	0	0	0
221	3	2	2	1	2	1	547	0	520.719268931809	0	0	0	0
222	3	2	1	1	2	1	268	0	522.902204344899	0	0	0	0
223	3	1	1	2	1	1	452	0	524.717841855004	0	0	0	0
224	3	1	2	2	2	2	405	0	526.733805627478	0	0	0	0
225	3	2	1	1	1	2	343	0	528.683516144898	0	0	0	0
226	3	2	1	2	2	1	379	0	530.599082331809	0	0	0	0
227	3	1	1	1	1	1	254	0	532.532169544898	0	0	0	0
228	3	1	1	2	1	1	391	0	534.331089440519	0	0	0	0
229	3	2	1	2	2	1	260	0	536.430337717324	0	0	0	0
230	3	2	2	2	1	2	316	0	538.246372555003	0	0	0	0
231	3	2	2	2	2	1	337	0	540.129425544898	0	0	0	0
232	3	2	2	2	1	2	326	0	542.012048144898	0	0	0	0
233	3	2	2	1	2	1	283	0	543.894365546293	0	0	0	0
234	3	2	1	2	1	2	259	0	545.727005481086	0	0	0	0
235	3	1	1	1	1	1	700	0	547.543037815879	0	0	0	0
236	3	1	2	1	1	1	306	0	549.792234792684	0	0	0	0
237	3	1	2	1	2	2	328	0	551.658235595571	0	0	0	0
238	3	2	2	1	1	2	269	0	553.558016044898	0	0	0	0
239	3	2	2	2	2	1	323	0	555.423547557891	0	0	0	0
240	3	2	1	1	2	1	292	0	557.423254644898	0	0	0	0
241	3	1	2	1	0	99	0	0	559.422591944898	0	0	0	0
242	3	2	2	1	2	1	478	0	561.988307844898	0	0	0	0
243	3	2	2	1	2	1	284	0	564.037155140519	0	0	0	0
244	3	1	2	2	1	1	659	0	565.886891344899	0	0	0	0
245	3	1	1	1	2	2	427	0	568.102913744899	0	0	0	0
246	3	1	1	1	1	1	317	0	570.08498702021	0	0	0	0
247	3	2	2	1	2	1	484	0	571.951425544898	0	0	0	0
248	3	1	1	1	1	1	308	0	573.983590257891	0	0	0	0
249	3	2	1	2	2	1	410	0	575.849592457891	0	0	0	0
250	3	2	1	1	2	1	428	0	577.815549482531	0	0	0	0
251	3	2	1	2	2	1	348	0	579.79816784485	0	0	0	0
252	3	1	1	2	1	1	272	0	581.714747144898	0	0	0	0
253	3	2	1	1	2	1	456	0	583.547257344899	0	0	0	0
254	3	2	1	2	1	2	391	0	585.562791365158	0	0	0	0
255	3	1	2	2	2	2	347	0	587.512094204282	0	0	0	0
256	3	1	1	2	1	1	398	0	589.428076128921	0	0	0	0
257	3	1	1	1	1	1	431	0	591.427352357891	0	0	0	0
258	3	2	1	1	2	1	336	0	593.426638533252	0	0	0	0
259	3	2	2	2	2	1	415	0	595.426561844898	0	0	0	0
260	3	1	2	1	2	2	465	0	597.425220678199	0	0	0	0
261	3	1	1	1	1	1	257	0	599.457828107169	0	0	0	0
262	3	2	2	2	1	2	530	0	601.423801702838	0	0	0	0
263	3	2	1	2	2	1	288	0	603.506400427477	0	0	0	0
264	3	2	1	2	2	1	324	0	605.422699744899	0	0	0	0
265	3	1	2	1	1	1	500	0	607.421660565157	0	0	0	0
266	3	1	2	2	2	2	323	0	609.487593802838	0	0	0	0
267	3	1	1	2	1	1	309	0	611.420603344898	0	0	0	0
268	3	1	1	1	1	1	438	0	613.41951802021	0	0	0	0
269	3	1	1	2	1	1	263	0	615.419214444898	0	0	0	0
270	3	2	2	2	2	1	286	0	617.235357344898	0	0	0	0
271	3	2	1	1	2	1	309	0	619.084698344898	0	0	0	0
272	3	1	2	2	1	1	539	0	620.950565044898	0	0	0	0
273	3	1	1	1	2	2	296	0	623.049937644898	0	0	0	0
274	3	2	1	2	2	1	351	0	624.915422352116	0	0	0	0
275	3	1	2	1	2	2	383	0	626.898608244898	0	0	0	0
276	3	1	2	2	1	1	448	0	628.897874744898	0	0	0	0
277	3	1	1	2	1	1	417	0	630.913266627477	0	0	0	0
278	3	1	1	1	1	1	306	0	632.912992344898	0	0	0	0
279	3	2	1	2	2	1	275	0	634.912387444899	0	0	0	0
280	3	1	1	2	2	2	315	0	636.744514517323	0	0	0	0
281	3	2	1	1	1	2	497	0	638.610518315879	0	0	0	0
282	3	1	1	1	1	1	318	0	640.659796433252	0	0	0	0
283	3	1	1	2	1	1	309	0	642.526122444899	0	0	0	0
284	3	2	1	1	2	1	378	0	644.392263944898	0	0	0	0
285	3	2	1	2	2	1	377	0	646.441045941962	0	0	0	0
286	3	1	2	2	1	1	538	0	648.440632744899	0	0	0	0
287	3	1	2	2	1	1	502	0	650.540021544898	0	0	0	0
288	3	2	2	2	1	2	405	0	652.605888044898	0	0	0	0
289	4	2	1	2	2	1	483	0	673.614681744849	0	0	0	0
290	4	1	2	1	2	2	258	0	675.647740244898	0	0	0	0
291	4	2	2	1	1	2	267	0	677.46330282021	0	0	0	0
292	4	1	2	2	2	2	301	0	679.429273140518	0	0	0	0
293	4	1	1	1	1	1	238	0	681.428562928921	0	0	0	0
294	4	2	2	2	2	1	438	0	683.227925140518	0	0	0	0
295	4	2	2	1	2	1	310	0	685.227824744898	0	0	0	0
296	4	2	2	1	1	2	333	0	687.093200340519	0	0	0	0
297	4	2	1	1	2	1	257	0	688.992535827478	0	0	0	0
298	4	2	1	2	2	1	357	0	690.908886444899	0	0	0	0
299	4	2	2	1	1	2	295	0	692.907788141963	0	0	0	0
300	4	1	2	2	2	2	301	0	694.757538344898	0	0	0	0
301	4	2	1	1	2	1	339	0	696.623138802838	0	0	0	0
302	4	1	1	1	1	1	456	0	698.522459178199	0	0	0	0
303	4	2	1	1	2	1	391	0	700.538974744898	0	0	0	0
304	4	2	1	1	2	1	348	0	702.487711895571	0	0	0	0
305	4	2	1	2	2	1	381	0	704.437391444898	0	0	0	0
306	4	1	1	2	1	1	462	0	706.436305004282	0	0	0	0
307	4	2	1	2	1	2	494	0	708.452236718766	0	0	0	0
308	4	2	2	2	2	1	429	0	710.50150482021	0	0	0	0
309	4	2	2	2	2	1	477	0	712.50078478253	0	0	0	0
310	4	1	2	2	1	1	477	0	714.533840844898	0	0	0	0
311	4	1	1	2	1	1	334	0	716.583087144898	0	0	0	0
312	4	1	2	2	1	1	527	0	718.499050044898	0	0	0	0
313	4	2	2	2	1	2	334	0	720.581248055003	0	0	0	0
314	4	1	2	2	1	1	562	0	722.480572940519	0	0	0	0
315	4	2	2	1	2	1	318	0	724.596484789797	0	0	0	0
316	4	1	1	1	2	2	547	0	726.463056744898	0	0	0	0
317	4	2	2	2	2	1	496	0	728.562128444898	0	0	0	0
318	4	1	2	2	1	1	367	0	730.627994044899	0	0	0	0
319	4	1	1	2	1	1	530	0	732.560844344898	0	0	0	0
320	4	1	1	2	1	1	287	0	734.659542195571	0	0	0	0
321	4	2	1	2	2	1	373	0	736.508909827478	0	0	0	0
322	4	1	2	1	1	1	473	0	738.441524157891	0	0	0	0
323	4	1	1	2	1	1	295	0	740.474522144898	0	0	0	0
324	4	2	1	1	2	1	415	0	742.340145841963	0	0	0	0
325	4	2	2	2	1	2	314	0	744.439826344898	0	0	0	0
326	4	2	2	2	2	1	545	0	746.305786344898	0	0	0	0
327	4	2	2	2	1	2	397	0	748.437955257891	0	0	0	0
328	4	2	2	2	2	1	478	0	750.437241115879	0	0	0	0
329	4	2	2	1	1	2	316	0	752.470236344899	0	0	0	0
330	4	1	2	1	1	1	418	0	754.33584438253	0	0	0	0
331	4	1	1	1	1	1	336	0	756.435104166602	0	0	0	0
332	4	2	2	2	1	2	340	0	758.318132244898	0	0	0	0
333	4	1	1	1	2	2	297	0	760.201035444898	0	0	0	0
334	4	1	1	1	1	1	256	0	762.066444427478	0	0	0	0
335	4	2	1	1	2	1	472	0	763.882439868045	0	0	0	0
336	4	2	2	1	2	1	376	0	765.898386355004	0	0	0	0
337	4	1	2	1	1	1	539	0	767.831030641963	0	0	0	0
338	4	1	1	1	1	1	425	0	769.913610255004	0	0	0	0
339	4	2	1	1	2	1	330	0	771.896247921654	0	0	0	0
340	4	1	2	2	1	1	416	0	773.778911470932	0	0	0	0
341	4	1	2	1	2	2	305	0	775.74486178253	0	0	0	0
342	4	1	1	2	1	1	424	0	777.594204357891	0	0	0	0
343	4	1	1	1	1	1	363	0	779.576829478199	0	0	0	0
344	4	2	2	1	2	1	269	0	781.509478353561	0	0	0	0
345	4	2	1	1	2	1	401	0	783.425878244899	0	0	0	0
346	4	1	1	1	1	1	483	0	785.424763327477	0	0	0	0
347	4	1	2	2	1	1	416	0	787.474027489797	0	0	0	0
348	4	2	1	2	2	1	498	0	789.456641040519	0	0	0	0
349	4	1	1	2	2	2	432	0	791.506456544898	0	0	0	0
350	4	1	1	1	1	1	402	0	793.488537394128	0	0	0	0
351	4	1	2	1	1	1	435	0	795.454928544898	0	0	0	0
352	4	1	1	2	1	1	308	0	797.454192744898	0	0	0	0
353	4	2	1	2	1	2	325	0	799.436410566602	0	0	0	0
354	4	2	1	1	2	1	262	0	801.435694157891	0	0	0	0
355	4	1	2	2	1	1	287	0	803.252306944898	0	0	0	0
356	4	1	2	1	2	2	310	0	805.08439232021	0	0	0	0
357	4	2	2	1	1	2	283	0	806.951004244898	0	0	0	0
358	4	1	1	2	1	1	526	0	808.916356620211	0	0	0	0
359	4	2	2	1	1	2	298	0	811.016125144898	0	0	0	0
360	4	1	2	2	2	2	287	0	812.915424144899	0	0	0	0
361	4	1	1	1	1	1	550	0	814.748123244898	0	0	0	0
362	4	2	1	1	2	1	272	0	816.914081844899	0	0	0	0
363	4	2	1	2	2	1	439	0	818.763251444899	0	0	0	0
364	4	1	2	1	2	2	440	0	820.745852244899	0	0	0	0
365	4	1	1	2	1	1	250	0	822.744753166602	0	0	0	0
366	4	1	2	1	1	1	547	0	824.544124078199	0	0	0	0
367	4	2	2	1	1	2	268	0	826.643365268045	0	0	0	0
368	4	1	1	1	0	99	0	0	828.459789044899	0	0	0	0
369	4	2	1	2	2	1	464	0	831.042188644898	0	0	0	0
370	4	1	2	2	2	2	385	0	833.057744765158	0	0	0	0
371	4	1	1	2	1	1	323	0	834.990997444898	0	0	0	0
372	4	1	2	1	1	1	311	0	836.92302192021	0	0	0	0
373	4	2	1	2	2	1	377	0	838.922887944898	0	0	0	0
374	4	1	1	2	1	1	409	0	840.921592568046	0	0	0	0
375	4	2	2	2	1	2	361	0	842.920888065158	0	0	0	0
376	4	1	2	2	1	1	474	0	844.920181828921	0	0	0	0
377	4	2	1	2	2	1	281	0	846.953142844898	0	0	0	0
378	4	2	1	1	2	1	315	0	848.919172744898	0	0	0	0
379	4	1	2	1	1	1	444	0	850.918610644899	0	0	0	0
380	4	2	2	1	2	1	381	0	852.917325817323	0	0	0	0
381	4	2	2	2	1	2	446	0	854.916590402839	0	0	0	0
382	4	2	1	1	1	2	382	0	856.933113244898	0	0	0	0
383	4	1	2	1	1	1	543	0	858.915689844898	0	0	0	0
384	4	2	1	2	1	2	555	0	861.031072531809	0	0	0	0
