Trial	Block	stimside	congruentcondition	colors	respside	accuracy	RT	reward	trialtime	tmstime	query	qresp	qrt
1	1	2	2	1	0	99	0	0	-0.0754284961149096	0	0	0	0
2	1	1	1	1	1	1	340	0	2.50756896974053	0	0	0	0
3	1	2	1	2	2	1	360	0	4.40630404144758	0	0	0	0
4	1	1	2	1	2	2	349	0	6.32229519728571	0	0	0	0
5	1	1	1	2	1	1	272	0	8.23888578481274	0	0	0	0
6	1	2	2	1	1	2	295	0	10.0876104035415	0	0	0	0
7	1	1	1	2	1	1	590	0	11.9539671337698	0	0	0	0
8	1	2	2	1	1	2	281	0	14.1028497795342	0	0	0	0
9	1	2	1	1	2	1	400	0	15.9359983747127	0	0	0	0
10	1	1	1	2	1	1	322	0	17.8848296112265	0	0	0	0
11	1	1	1	1	1	1	407	0	19.7679096999345	0	0	0	0
12	1	1	1	1	1	1	425	0	21.750119785429	0	0	0	0
13	1	2	1	2	2	1	299	0	23.7327148490003	0	0	0	0
14	1	2	2	1	1	2	256	0	25.5991014663596	0	0	0	0
15	1	2	1	2	2	1	569	0	27.4147698735469	0	0	0	0
16	1	1	1	1	1	1	339	0	29.5477016149671	0	0	0	0
17	1	2	1	1	2	1	295	0	31.4639299592236	0	0	0	0
18	1	1	2	2	2	2	477	0	33.3293002287392	0	0	0	0
19	1	2	2	1	1	2	349	0	35.3785705916234	0	0	0	0
20	1	1	2	1	1	1	736	0	37.2945556259947	0	0	0	0
21	1	2	1	2	2	1	358	0	39.5937215072336	0	0	0	0
22	1	1	1	2	1	1	474	0	41.5097312591388	0	0	0	0
23	1	1	1	2	1	1	361	0	43.5260295181652	0	0	0	0
24	1	2	2	1	1	2	349	0	45.4416500480147	0	0	0	0
25	1	1	2	2	1	1	529	0	47.3415574876126	0	0	0	0
26	1	2	2	2	2	1	303	0	49.4402163630584	0	0	0	0
27	1	1	2	1	1	1	404	0	51.306729623524	0	0	0	0
28	1	2	2	1	2	1	310	0	53.272670400911	0	0	0	0
29	1	2	1	2	2	1	365	0	55.1387150539667	0	0	0	0
30	1	1	2	2	1	1	481	0	57.0541495081852	0	0	0	0
31	1	1	1	2	1	1	449	0	59.086757864512	0	0	0	0
32	1	2	1	2	2	1	544	0	61.1026993076666	0	0	0	0
33	1	2	2	2	1	2	254	0	63.2019620531937	0	0	0	0
34	1	2	1	1	2	1	661	0	65.0179995613871	0	0	0	0
35	1	1	1	2	1	1	349	0	67.2505213821423	0	0	0	0
36	1	2	1	1	0	99	0	0	69.1664943680516	0	0	0	0
37	1	2	2	2	2	1	634	0	71.7489134753705	0	0	0	0
38	1	2	1	1	2	1	596	0	73.931450533797	0	0	0	0
39	1	2	2	1	2	1	511	0	76.0806812654482	0	0	0	0
40	1	1	2	1	1	1	428	0	78.1466178576811	0	0	0	0
41	1	1	2	1	1	1	398	0	80.1458985092468	0	0	0	0
42	1	2	1	1	2	1	351	0	82.1118591763661	0	0	0	0
43	1	2	1	1	1	2	771	0	84.0284073022776	0	0	0	0
44	1	2	1	1	2	1	486	0	86.3608434594353	0	0	0	0
45	1	1	1	1	1	1	438	0	88.3929567922023	0	0	0	0
46	1	1	2	2	2	2	423	0	90.3922342409496	0	0	0	0
47	1	1	1	2	1	1	360	0	92.3748607957386	0	0	0	0
48	1	2	1	2	2	1	556	0	94.2912403428345	0	0	0	0
49	1	1	2	2	1	1	824	0	96.4073379281908	0	0	0	0
50	1	2	2	2	2	1	458	0	98.7892509395606	0	0	0	0
51	1	1	2	1	1	1	394	0	100.821841536032	0	0	0	0
52	1	2	2	2	2	1	429	0	102.771148306143	0	0	0	0
53	1	2	2	2	2	1	365	0	104.754181621945	0	0	0	0
54	1	2	1	1	2	1	513	0	106.670270096569	0	0	0	0
55	1	2	2	2	2	1	575	0	108.736254246382	0	0	0	0
56	1	1	2	2	1	1	395	0	110.86826944619	0	0	0	0
57	1	2	2	1	2	1	621	0	112.817570273648	0	0	0	0
58	1	1	1	1	1	1	472	0	114.983446892817	0	0	0	0
59	1	2	2	2	2	1	472	0	117.016064720636	0	0	0	0
60	1	1	1	1	1	1	503	0	119.048662001442	0	0	0	0
61	1	1	2	1	1	1	469	0	121.098356564238	0	0	0	0
62	1	1	2	2	1	1	805	0	123.130535955832	0	0	0	0
63	1	2	1	1	2	1	407	0	125.496364330524	0	0	0	0
64	1	2	2	2	2	1	440	0	127.462836986932	0	0	0	0
65	1	1	1	2	1	1	364	0	129.444947218872	0	0	0	0
66	1	1	1	2	1	1	414	0	131.377578650892	0	0	0	0
67	1	2	1	2	2	1	465	0	133.343561374466	0	0	0	0
68	1	1	1	1	1	1	431	0	135.359492215444	0	0	0	0
69	1	1	2	1	1	1	336	0	137.358805515105	0	0	0	0
70	1	1	1	2	1	1	678	0	139.258102011227	0	0	0	0
71	1	2	1	1	2	1	413	0	141.490659193834	0	0	0	0
72	1	1	2	1	1	1	606	0	143.473284091975	0	0	0	0
73	1	2	2	1	2	1	441	0	145.622498609999	0	0	0	0
74	1	1	2	2	1	1	698	0	147.621792724764	0	0	0	0
75	1	1	1	1	1	1	480	0	149.870982347406	0	0	0	0
76	1	1	1	1	1	1	415	0	151.920650888467	0	0	0	0
77	1	2	2	2	2	1	705	0	153.886200392735	0	0	0	0
78	1	1	2	2	1	1	487	0	156.152461096877	0	0	0	0
79	1	2	1	2	2	1	390	0	158.185078956303	0	0	0	0
80	1	1	1	1	1	1	537	0	160.133995405165	0	0	0	0
81	1	1	2	2	1	1	583	0	162.217037246912	0	0	0	0
82	1	2	2	2	2	1	705	0	164.366189303226	0	0	0	0
83	1	2	1	1	0	99	0	0	166.631655449455	0	0	0	0
84	1	2	1	2	2	1	674	0	169.214064753964	0	0	0	0
85	1	1	2	1	1	1	586	0	171.446601578849	0	0	0	0
86	1	1	1	1	1	1	356	0	173.59582107712	0	0	0	0
87	1	2	2	1	2	1	838	0	175.512450933864	0	0	0	0
88	1	2	1	2	2	1	663	0	177.911550699442	0	0	0	0
89	1	2	1	2	2	1	545	0	180.12684260495	0	0	0	0
90	1	2	2	1	2	1	717	0	182.242742313421	0	0	0	0
91	1	1	2	2	1	1	483	0	184.52526866016	0	0	0	0
92	1	2	2	2	1	2	402	0	186.557874029386	0	0	0	0
93	1	1	2	1	1	1	530	0	188.5411036812	0	0	0	0
94	1	1	2	2	1	1	527	0	190.623409913562	0	0	0	0
95	1	1	2	1	1	1	478	0	192.70568554895	0	0	0	0
96	1	1	1	2	1	1	525	0	194.738698757254	0	0	0	0
97	2	1	2	2	1	1	595	0	233.707704418688	0	0	0	0
98	2	2	1	2	2	1	526	0	235.856920756283	0	0	0	0
99	2	2	2	2	2	1	411	0	237.956513980462	0	0	0	0
100	2	2	2	1	2	1	348	0	239.922661675082	0	0	0	0
101	2	2	1	2	2	1	402	0	241.821469595132	0	0	0	0
102	2	2	1	2	2	1	339	0	243.787420674926	0	0	0	0
103	2	1	2	2	1	1	330	0	245.670088538493	0	0	0	0
104	2	2	2	1	2	1	653	0	247.56993319036	0	0	0	0
105	2	2	1	2	2	1	661	0	249.785863060446	0	0	0	0
106	2	1	2	1	1	1	365	0	252.001503888052	0	0	0	0
107	2	2	2	2	2	1	690	0	253.917125548527	0	0	0	0
108	2	1	2	2	1	1	632	0	256.166912583285	0	0	0	0
109	2	2	2	1	2	1	627	0	258.348874811956	0	0	0	0
110	2	2	1	1	2	1	380	0	260.531427358219	0	0	0	0
111	2	2	2	2	2	1	672	0	262.464055818855	0	0	0	0
112	2	1	1	1	1	1	392	0	264.679955717642	0	0	0	0
113	2	2	1	2	2	1	618	0	266.629657531623	0	0	0	0
114	2	1	1	2	1	1	372	0	268.812384720368	0	0	0	0
115	2	1	2	2	1	1	518	0	270.744773463055	0	0	0	0
116	2	2	1	1	2	1	484	0	272.827645590121	0	0	0	0
117	2	1	2	1	1	1	643	0	274.876319529489	0	0	0	0
118	2	1	1	1	1	1	475	0	277.075525494234	0	0	0	0
119	2	1	1	1	1	1	363	0	279.108126798179	0	0	0	0
120	2	1	2	2	1	1	479	0	281.024098600785	0	0	0	0
121	2	2	1	1	2	1	383	0	283.05671947886	0	0	0	0
122	2	2	1	2	2	1	401	0	285.006026885356	0	0	0	0
123	2	2	1	1	2	1	450	0	286.972521356307	0	0	0	0
124	2	1	1	2	1	1	405	0	288.971262198233	0	0	0	0
125	2	2	2	2	1	2	438	0	290.937232215947	0	0	0	0
126	2	1	2	1	1	1	534	0	292.937136900844	0	0	0	0
127	2	1	2	1	1	1	421	0	295.019619253522	0	0	0	0
128	2	2	1	1	2	1	437	0	297.01841544162	0	0	0	0
129	2	2	1	1	2	1	453	0	299.017685401544	0	0	0	0
130	2	2	1	1	2	1	421	0	301.017358882993	0	0	0	0
131	2	1	1	1	1	1	519	0	303.000214584987	0	0	0	0
132	2	2	2	2	2	1	773	0	305.082187567314	0	0	0	0
133	2	2	1	2	2	1	984	0	307.41467193421	0	0	0	0
134	2	1	1	2	1	1	612	0	309.964146179729	0	0	0	0
135	2	2	2	1	2	1	621	0	312.129670747672	0	0	0	0
136	2	1	2	1	1	1	583	0	314.312206186238	0	0	0	0
137	2	2	1	2	2	1	610	0	316.444788195775	0	0	0	0
138	2	1	1	1	1	1	605	0	318.627773782588	0	0	0	0
139	2	2	1	1	2	1	486	0	320.793254579417	0	0	0	0
140	2	2	2	1	2	1	629	0	322.842867963598	0	0	0	0
141	2	2	1	1	2	1	461	0	325.041690832993	0	0	0	0
142	2	1	2	1	1	1	541	0	327.057660580322	0	0	0	0
143	2	2	2	1	2	1	619	0	329.156911855913	0	0	0	0
144	2	1	2	1	1	1	276	0	331.339811041777	0	0	0	0
145	2	2	1	2	2	1	666	0	333.172700812924	0	0	0	0
146	2	2	2	2	2	1	564	0	335.404679232102	0	0	0	0
147	2	2	1	1	2	1	910	0	337.537246395368	0	0	0	0
148	2	2	2	2	2	1	524	0	340.003334704787	0	0	0	0
149	2	1	1	2	1	1	506	0	342.069340669143	0	0	0	0
150	2	1	2	2	1	1	505	0	344.118218754302	0	0	0	0
151	2	2	1	2	2	1	470	0	346.184701372404	0	0	0	0
152	2	1	1	2	1	1	727	0	348.216770723637	0	0	0	0
153	2	1	1	1	1	1	540	0	350.499291974411	0	0	0	0
154	2	2	2	2	2	1	681	0	352.581872466195	0	0	0	0
155	2	2	1	1	2	1	865	0	354.814380676602	0	0	0	0
156	2	1	2	1	1	1	561	0	357.230787139444	0	0	0	0
157	2	1	2	2	1	1	637	0	359.362788139901	0	0	0	0
158	2	2	2	1	2	1	534	0	361.545325077313	0	0	0	0
159	2	1	2	2	1	1	915	0	363.628294444119	0	0	0	0
160	2	1	2	2	1	1	593	0	366.093708180822	0	0	0	0
161	2	1	2	2	1	1	444	0	368.242925107479	0	0	0	0
162	2	1	2	2	1	1	429	0	370.242216503248	0	0	0	0
163	2	2	1	1	2	1	526	0	372.224856857676	0	0	0	0
164	2	1	1	2	1	1	812	0	374.307437049749	0	0	0	0
165	2	1	2	2	1	1	428	0	376.69053355197	0	0	0	0
166	2	1	1	1	1	1	591	0	378.672535479069	0	0	0	0
167	2	1	1	2	1	1	409	0	380.822126513289	0	0	0	0
168	2	1	1	2	1	1	491	0	382.787737837643	0	0	0	0
169	2	2	2	2	2	1	523	0	384.837000422354	0	0	0	0
170	2	2	1	2	2	1	567	0	386.920203690534	0	0	0	0
171	2	1	2	1	1	1	451	0	389.035496194556	0	0	0	0
172	2	2	2	1	2	1	868	0	391.051462534058	0	0	0	0
173	2	2	2	1	2	1	532	0	393.467257148877	0	0	0	0
174	2	1	1	1	1	1	593	0	395.549844088207	0	0	0	0
175	2	1	1	1	1	1	412	0	397.69906925055	0	0	0	0
176	2	1	1	2	2	2	734	0	399.665048808209	0	0	0	0
177	2	2	2	1	2	1	371	0	401.947578425985	0	0	0	0
178	2	2	2	2	2	1	599	0	403.88020490401	0	0	0	0
179	2	1	1	1	1	1	482	0	406.029776484997	0	0	0	0
180	2	2	1	2	2	1	721	0	408.062043129408	0	0	0	0
181	2	1	1	1	1	1	567	0	410.344564553699	0	0	0	0
182	2	1	1	2	1	1	722	0	412.460802460962	0	0	0	0
183	2	1	2	1	1	1	568	0	414.742975389177	0	0	0	0
184	2	1	1	1	1	1	483	0	416.876014825422	0	0	0	0
185	2	1	1	2	1	1	514	0	418.924818274216	0	0	0	0
186	2	2	2	2	2	1	625	0	420.990753825172	0	0	0	0
187	2	1	1	2	1	1	825	0	423.18997404183	0	0	0	0
188	2	1	2	1	1	1	730	0	425.572436560527	0	0	0	0
189	2	2	2	1	2	1	528	0	427.871633896139	0	0	0	0
190	2	1	2	1	1	1	621	0	429.954208650335	0	0	0	0
191	2	2	2	2	2	1	630	0	432.137347475276	0	0	0	0
192	2	2	2	1	2	1	592	0	434.319326553901	0	0	0	0
193	3	1	1	1	1	1	743	0	456.744630716741	0	0	0	0
194	3	1	2	1	1	1	444	0	459.04382813652	0	0	0	0
195	3	1	1	1	1	1	364	0	461.043098580267	0	0	0	0
196	3	1	2	1	1	1	320	0	462.959072481317	0	0	0	0
197	3	2	1	1	2	1	390	0	464.825091149425	0	0	0	0
198	3	2	1	1	2	1	329	0	466.757731952996	0	0	0	0
199	3	2	2	1	2	1	367	0	468.640397171199	0	0	0	0
200	3	2	1	1	2	1	307	0	470.573030596308	0	0	0	0
201	3	1	2	1	1	1	360	0	472.439448920544	0	0	0	0
202	3	1	1	2	1	1	444	0	474.355436663318	0	0	0	0
203	3	1	1	2	1	1	509	0	476.354281334614	0	0	0	0
204	3	2	1	1	1	2	331	0	478.420754507475	0	0	0	0
205	3	2	2	1	2	1	576	0	480.319539030024	0	0	0	0
206	3	1	1	1	1	1	443	0	482.452114765474	0	0	0	0
207	3	2	1	1	2	1	364	0	484.451403021638	0	0	0	0
208	3	1	2	2	1	1	384	0	486.367387929815	0	0	0	0
209	3	2	1	2	2	1	500	0	488.300013098284	0	0	0	0
210	3	2	1	2	2	1	337	0	490.349295409629	0	0	0	0
211	3	1	2	1	1	1	519	0	492.232471028925	0	0	0	0
212	3	1	2	2	1	1	454	0	494.315039677313	0	0	0	0
213	3	1	2	2	1	1	373	0	496.314291887975	0	0	0	0
214	3	1	2	2	1	1	312	0	498.246823066729	0	0	0	0
215	3	2	1	2	1	2	463	0	500.112460727396	0	0	0	0
216	3	2	2	2	1	2	383	0	502.1284154444	0	0	0	0
217	3	2	2	1	2	1	497	0	504.077716645144	0	0	0	0
218	3	2	1	2	2	1	463	0	506.143661146984	0	0	0	0
219	3	2	2	1	1	2	383	0	508.176254183752	0	0	0	0
220	3	2	1	1	2	1	450	0	510.108886273112	0	0	0	0
221	3	2	2	1	2	1	529	0	512.125454705209	0	0	0	0
222	3	2	1	2	2	1	383	0	514.224080822023	0	0	0	0
223	3	1	1	2	1	1	402	0	516.173389085685	0	0	0	0
224	3	1	1	1	1	1	899	0	518.139361207082	0	0	0	0
225	3	1	1	2	1	1	482	0	520.605135404097	0	0	0	0
226	3	1	2	2	1	1	369	0	522.654408732953	0	0	0	0
227	3	1	2	1	1	1	613	0	524.570409202599	0	0	0	0
228	3	2	2	2	1	2	334	0	526.75294272165	0	0	0	0
229	3	2	2	2	2	1	500	0	528.635596264794	0	0	0	0
230	3	1	1	2	1	1	385	0	530.685462314636	0	0	0	0
231	3	2	2	1	1	2	485	0	532.634175170038	0	0	0	0
232	3	2	1	2	2	1	372	0	534.683456114028	0	0	0	0
233	3	2	1	1	2	1	360	0	536.616090233321	0	0	0	0
234	3	2	2	1	2	1	411	0	538.532620715094	0	0	0	0
235	3	1	1	1	1	1	429	0	540.498034246673	0	0	0	0
236	3	2	2	2	2	1	510	0	542.497326373472	0	0	0	0
237	3	1	2	1	1	1	476	0	544.563661512162	0	0	0	0
238	3	2	2	2	2	1	443	0	546.612511734886	0	0	0	0
239	3	1	2	2	1	1	540	0	548.612174787559	0	0	0	0
240	3	1	2	1	1	1	601	0	550.694981791836	0	0	0	0
241	3	1	1	2	1	1	467	0	552.860291149002	0	0	0	0
242	3	2	2	1	2	1	465	0	554.893307654769	0	0	0	0
243	3	2	2	1	2	1	449	0	556.925503943639	0	0	0	0
244	3	2	2	2	2	1	434	0	558.924768902245	0	0	0	0
245	3	1	1	2	1	1	517	0	560.907402193872	0	0	0	0
246	3	2	1	2	2	1	417	0	562.989991515584	0	0	0	0
247	3	1	2	1	1	1	514	0	564.972629908414	0	0	0	0
248	3	1	1	2	1	1	463	0	567.055634084856	0	0	0	0
249	3	1	1	2	1	1	464	0	569.071158764302	0	0	0	0
250	3	1	2	2	1	1	432	0	571.087099134631	0	0	0	0
251	3	1	2	1	1	1	721	0	573.07022608252	0	0	0	0
252	3	1	1	2	1	1	454	0	575.352254986472	0	0	0	0
253	3	2	2	2	2	1	439	0	577.352016272896	0	0	0	0
254	3	2	1	2	2	1	344	0	579.35082278453	0	0	0	0
255	3	2	1	1	2	1	364	0	581.266792693874	0	0	0	0
256	3	2	1	1	2	1	705	0	583.18277733383	0	0	0	0
257	3	1	1	1	1	1	343	0	585.448623241158	0	0	0	0
258	3	1	2	1	1	1	427	0	587.347964423359	0	0	0	0
259	3	2	2	2	2	1	636	0	589.330590015685	0	0	0	0
260	3	2	2	1	2	1	837	0	591.529794923263	0	0	0	0
261	3	2	2	2	2	1	469	0	593.929381834459	0	0	0	0
262	3	1	1	1	1	1	501	0	595.96202503721	0	0	0	0
263	3	1	1	1	1	1	419	0	598.02780387376	0	0	0	0
264	3	1	1	1	1	1	502	0	599.993803357938	0	0	0	0
265	3	2	1	2	2	1	437	0	602.043068913918	0	0	0	0
266	3	2	1	2	2	1	918	0	604.042351600772	0	0	0	0
267	3	1	2	2	1	1	483	0	606.524941357959	0	0	0	0
268	3	2	1	2	2	1	755	0	608.557058414037	0	0	0	0
269	3	2	2	2	2	1	871	0	610.856235476036	0	0	0	0
270	3	1	1	2	1	1	791	0	613.272404135321	0	0	0	0
271	3	1	1	1	1	1	682	0	615.621181370865	0	0	0	0
272	3	2	2	1	1	2	737	0	617.854162758798	0	0	0	0
273	3	1	1	2	1	1	583	0	620.136229469965	0	0	0	0
274	3	1	2	1	1	1	419	0	622.268796181015	0	0	0	0
275	3	2	2	2	2	1	532	0	624.234769727511	0	0	0	0
276	3	2	2	2	2	1	418	0	626.31736999331	0	0	0	0
277	3	1	2	2	1	1	386	0	628.300457945326	0	0	0	0
278	3	2	2	1	2	1	709	0	630.249702585046	0	0	0	0
279	3	2	1	2	2	1	411	0	632.53180838679	0	0	0	0
280	3	1	1	1	1	1	397	0	634.497779140773	0	0	0	0
281	3	1	2	2	1	1	768	0	636.447686793923	0	0	0	0
282	3	2	1	1	2	1	820	0	638.796219446929	0	0	0	0
283	3	1	2	1	1	1	532	0	641.178724679572	0	0	0	0
284	3	1	2	2	1	1	624	0	643.278380354866	0	0	0	0
285	3	1	1	1	1	1	442	0	645.460513570986	0	0	0	0
286	3	1	2	2	1	1	619	0	647.459802926343	0	0	0	0
287	3	2	1	1	2	1	519	0	649.625708769949	0	0	0	0
288	3	2	1	1	2	1	355	0	651.70829725021	0	0	0	0
289	4	2	1	1	0	99	0	0	682.563926268485	0	0	0	0
290	4	1	2	1	1	1	550	0	685.146339980129	0	0	0	0
291	4	1	2	1	1	1	336	0	687.262252678338	0	0	0	0
292	4	2	2	2	2	1	599	0	689.144900510088	0	0	0	0
293	4	2	1	2	2	1	449	0	691.294134533964	0	0	0	0
294	4	2	1	1	2	1	385	0	693.310088304337	0	0	0	0
295	4	1	1	2	1	1	388	0	695.242732536863	0	0	0	0
296	4	1	1	2	1	1	327	0	697.192017119029	0	0	0	0
297	4	1	2	2	1	1	380	0	699.091353757365	0	0	0	0
298	4	2	2	1	2	1	495	0	701.023991994618	0	0	0	0
299	4	2	2	1	2	1	446	0	703.073270098714	0	0	0	0
300	4	2	2	2	2	1	653	0	705.089725708473	0	0	0	0
301	4	1	1	1	1	1	374	0	707.305079297395	0	0	0	0
302	4	2	2	2	1	2	313	0	709.237746953673	0	0	0	0
303	4	2	2	2	2	1	559	0	711.104358768789	0	0	0	0
304	4	2	1	1	2	1	621	0	713.220025517163	0	0	0	0
305	4	1	1	2	1	1	356	0	715.402676034195	0	0	0	0
306	4	2	1	1	2	1	393	0	717.318166118581	0	0	0	0
307	4	2	2	2	2	1	507	0	719.268089669815	0	0	0	0
308	4	2	1	2	2	1	473	0	721.33341335156	0	0	0	0
309	4	1	1	1	1	1	377	0	723.366017779452	0	0	0	0
310	4	2	2	1	2	1	493	0	725.298657662701	0	0	0	0
311	4	2	2	1	2	1	362	0	727.348481997789	0	0	0	0
312	4	1	2	1	1	1	431	0	729.280571185111	0	0	0	0
313	4	2	2	1	2	1	479	0	731.279856806505	0	0	0	0
314	4	2	2	1	2	1	494	0	733.32912106876	0	0	0	0
315	4	1	2	1	1	1	380	0	735.395042020595	0	0	0	0
316	4	2	2	2	2	1	511	0	737.344639431976	0	0	0	0
317	4	1	2	1	1	1	445	0	739.410260218487	0	0	0	0
318	4	1	2	1	1	1	526	0	741.409886058129	0	0	0	0
319	4	2	1	1	2	1	523	0	743.508792724111	0	0	0	0
320	4	2	1	1	2	1	344	0	745.591380057973	0	0	0	0
321	4	2	2	1	2	1	509	0	747.49070589419	0	0	0	0
322	4	1	2	2	1	1	362	0	749.557239057031	0	0	0	0
323	4	2	2	2	2	1	495	0	751.472654504993	0	0	0	0
324	4	1	1	2	1	1	588	0	753.539049586281	0	0	0	0
325	4	2	1	2	2	1	455	0	755.688137802936	0	0	0	0
326	4	1	2	2	1	1	473	0	757.70374571206	0	0	0	0
327	4	2	2	1	2	1	614	0	759.736664872849	0	0	0	0
328	4	2	2	2	2	1	449	0	761.902247784717	0	0	0	0
329	4	1	2	2	1	1	800	0	763.918791520351	0	0	0	0
330	4	1	2	2	1	1	387	0	766.283988851414	0	0	0	0
331	4	1	1	2	1	1	565	0	768.233665695414	0	0	0	0
332	4	1	1	2	1	1	433	0	770.365887076245	0	0	0	0
333	4	2	2	1	2	1	530	0	772.349110769632	0	0	0	0
334	4	1	2	1	1	1	528	0	774.447741850978	0	0	0	0
335	4	2	1	2	2	1	541	0	776.530346255633	0	0	0	0
336	4	1	1	1	1	1	490	0	778.646257192129	0	0	0	0
337	4	2	2	2	2	1	551	0	780.695508427743	0	0	0	0
338	4	2	2	1	1	2	547	0	782.812006174063	0	0	0	0
339	4	1	1	1	1	1	640	0	784.927327203215	0	0	0	0
340	4	1	1	1	1	1	505	0	787.12654808251	0	0	0	0
341	4	2	1	1	2	1	488	0	789.175816951727	0	0	0	0
342	4	1	1	2	1	1	374	0	791.225088818581	0	0	0	0
343	4	2	1	1	2	1	345	0	793.157738767681	0	0	0	0
344	4	1	2	1	1	1	541	0	795.074168096937	0	0	0	0
345	4	2	1	2	1	2	394	0	797.172984738543	0	0	0	0
346	4	2	1	1	2	1	668	0	799.138920472527	0	0	0	0
347	4	1	1	2	1	1	596	0	801.37146941945	0	0	0	0
348	4	1	2	2	1	1	509	0	803.521325919952	0	0	0	0
349	4	2	1	2	2	1	477	0	805.586627608398	0	0	0	0
350	4	2	1	2	2	1	396	0	807.619856711128	0	0	0	0
351	4	1	2	2	1	1	461	0	809.585580947227	0	0	0	0
352	4	2	2	2	2	1	606	0	811.601144811837	0	0	0	0
353	4	2	2	1	2	1	424	0	813.767034326156	0	0	0	0
354	4	1	1	1	1	1	392	0	815.750163577439	0	0	0	0
355	4	1	1	1	1	1	364	0	817.698959988542	0	0	0	0
356	4	2	2	1	2	1	769	0	819.615368691797	0	0	0	0
357	4	1	2	2	1	1	627	0	821.947755124711	0	0	0	0
358	4	1	1	1	1	1	653	0	824.130004970706	0	0	0	0
359	4	1	1	1	1	1	516	0	826.346404805139	0	0	0	0
360	4	2	1	1	2	1	402	0	828.428443725454	0	0	0	0
361	4	1	2	1	1	1	501	0	830.394422546844	0	0	0	0
362	4	1	2	2	1	1	322	0	832.460980506032	0	0	0	0
363	4	2	1	1	2	1	408	0	834.343020134198	0	0	0	0
364	4	2	1	2	2	1	378	0	836.308960396273	0	0	0	0
365	4	1	2	1	1	1	382	0	838.241612459475	0	0	0	0
366	4	1	2	1	1	1	527	0	840.191441421455	0	0	0	0
367	4	1	1	1	1	1	510	0	842.273497323273	0	0	0	0
368	4	2	1	2	2	1	459	0	844.339959573059	0	0	0	0
369	4	2	1	2	2	1	460	0	846.355392061407	0	0	0	0
370	4	1	1	2	1	1	795	0	848.371724420111	0	0	0	0
371	4	1	2	1	1	1	432	0	850.72049015935	0	0	0	0
372	4	1	2	2	1	1	432	0	852.703688998474	0	0	0	0
373	4	2	1	2	2	1	720	0	854.702782091335	0	0	0	0
374	4	1	1	1	1	1	662	0	856.968876404513	0	0	0	0
375	4	2	2	2	2	1	687	0	859.184139543097	0	0	0	0
376	4	1	2	2	1	1	486	0	861.433309933462	0	0	0	0
377	4	1	1	2	1	1	468	0	863.482590425177	0	0	0	0
378	4	1	1	2	1	1	532	0	865.515225613141	0	0	0	0
379	4	1	2	2	1	1	657	0	867.597796091693	0	0	0	0
380	4	2	2	2	2	1	586	0	869.813685372472	0	0	0	0
381	4	2	1	1	2	1	484	0	871.963340966846	0	0	0	0
382	4	1	1	1	1	1	643	0	874.012496487761	0	0	0	0
383	4	2	1	2	2	1	747	0	876.211379278742	0	0	0	0
384	4	1	1	2	1	1	432	0	878.527745487809	0	0	0	0
