Trial	Block	stimside	congruentcondition	colors	respside	accuracy	RT	reward	trialtime	tmstime	query	qresp	qrt
1	1	1	2	2	1	1	905	0	-0.125783205032349	0	0	0	0
2	1	1	1	1	1	1	678	0	2.37340474128723	0	0	0	0
3	1	1	1	2	1	1	437	0	4.60600543022156	0	0	0	0
4	1	1	2	2	1	1	445	0	6.62200784683228	0	0	0	0
5	1	2	1	1	2	1	428	0	8.67133951187134	0	0	0	0
6	1	2	2	1	2	1	348	0	10.6873412132263	0	0	0	0
7	1	1	1	1	2	2	495	0	12.6033885478973	0	0	0	0
8	1	1	2	2	1	1	542	0	14.6693739891052	0	0	0	0
9	1	1	1	1	1	1	409	0	16.8020136356354	0	0	0	0
10	1	1	1	1	1	1	354	0	18.8013606071472	0	0	0	0
11	1	2	2	1	2	1	517	0	20.7340598106384	0	0	0	0
12	1	2	1	1	2	1	465	0	22.8333814144135	0	0	0	0
13	1	2	1	1	2	1	521	0	24.866046667099	0	0	0	0
14	1	2	2	1	1	2	382	0	26.9653654098511	0	0	0	0
15	1	2	2	1	2	1	609	0	28.898065328598	0	0	0	0
16	1	2	2	2	2	1	474	0	31.0806829929352	0	0	0	0
17	1	1	1	2	1	1	505	0	33.1133551597595	0	0	0	0
18	1	2	2	1	1	2	343	0	35.1960015296936	0	0	0	0
19	1	1	1	1	1	1	691	0	37.1120414733887	0	0	0	0
20	1	1	2	2	1	1	610	0	39.3613059520721	0	0	0	0
21	1	2	1	1	2	1	443	0	41.5439305305481	0	0	0	0
22	1	1	2	2	1	1	452	0	43.5599355697632	0	0	0	0
23	1	2	1	1	2	1	539	0	45.5759425163269	0	0	0	0
24	1	1	2	1	1	1	543	0	47.6919195652008	0	0	0	0
25	1	2	2	1	2	1	459	0	49.7912313938141	0	0	0	0
26	1	1	2	1	1	1	475	0	51.807235956192	0	0	0	0
27	1	1	2	1	1	1	426	0	53.8565571308136	0	0	0	0
28	1	2	1	2	2	1	507	0	55.8559145927429	0	0	0	0
29	1	1	2	2	1	1	760	0	57.9385776519775	0	0	0	0
30	1	1	1	1	1	1	597	0	60.2544827461243	0	0	0	0
31	1	1	2	1	1	1	423	0	62.4037747383118	0	0	0	0
32	1	2	2	1	2	1	424	0	64.3864595890045	0	0	0	0
33	1	1	2	1	1	1	449	0	66.3858029842377	0	0	0	0
34	1	1	2	2	1	1	409	0	68.401816368103	0	0	0	0
35	1	1	2	1	1	1	441	0	70.4011585712433	0	0	0	0
36	1	1	1	1	1	1	481	0	72.4171733856201	0	0	0	0
37	1	1	1	1	1	1	480	0	74.4664998054504	0	0	0	0
38	1	2	1	2	2	1	374	0	76.5325019359589	0	0	0	0
39	1	1	1	2	1	1	514	0	78.46519780159	0	0	0	0
40	1	2	2	1	2	1	511	0	80.5478472709656	0	0	0	0
41	1	2	2	2	1	2	508	0	82.6138477325439	0	0	0	0
42	1	1	2	1	1	1	698	0	84.6964972019196	0	0	0	0
43	1	1	1	2	1	1	631	0	86.9790766239166	0	0	0	0
44	1	2	2	2	2	1	608	0	89.1783602237701	0	0	0	0
45	1	2	1	1	2	1	346	0	91.3443205356598	0	0	0	0
46	1	2	1	1	2	1	415	0	93.243705034256	0	0	0	0
47	1	2	2	2	2	1	879	0	95.2430503368378	0	0	0	0
48	1	2	1	1	2	1	358	0	97.6922438144684	0	0	0	0
49	1	1	2	1	1	1	515	0	99.608288526535	0	0	0	0
50	1	2	2	2	2	1	608	0	101.690934896469	0	0	0	0
51	1	1	2	1	1	1	585	0	103.873563289642	0	0	0	0
52	1	1	2	2	1	1	756	0	106.022856235504	0	0	0	0
53	1	2	2	1	2	1	425	0	108.33877491951	0	0	0	0
54	1	1	1	1	1	1	528	0	110.338111639023	0	0	0	0
55	1	1	1	2	1	1	589	0	112.454085350037	0	0	0	0
56	1	1	2	2	1	1	640	0	114.603372335434	0	0	0	0
57	1	1	1	2	1	1	504	0	116.802673101425	0	0	0	0
58	1	1	1	2	1	1	565	0	118.885317564011	0	0	0	0
59	1	2	1	2	2	1	616	0	121.017962217331	0	0	0	0
60	1	1	1	1	1	1	514	0	123.200578212738	0	0	0	0
61	1	2	2	2	2	1	567	0	125.283239603043	0	0	0	0
62	1	2	2	1	2	1	594	0	127.432526350021	0	0	0	0
63	1	2	2	2	2	1	564	0	129.581818342209	0	0	0	0
64	1	2	1	2	2	1	456	0	131.697803020477	0	0	0	0
65	1	1	1	1	1	1	568	0	133.730482578278	0	0	0	0
66	1	1	2	2	1	1	986	0	135.879775047302	0	0	0	0
67	1	2	2	1	2	1	510	0	138.412283420563	0	0	0	0
68	1	2	1	1	2	1	378	0	140.511587619781	0	0	0	0
69	1	1	1	2	1	1	582	0	142.444295883179	0	0	0	0
70	1	2	2	2	2	1	513	0	144.610249757767	0	0	0	0
71	1	1	2	2	1	1	549	0	146.692906856537	0	0	0	0
72	1	2	2	2	2	1	794	0	148.79221868515	0	0	0	0
73	1	2	1	2	2	1	356	0	151.158111810684	0	0	0	0
74	1	2	1	1	2	1	368	0	153.07416176796	0	0	0	0
75	1	2	2	2	1	2	476	0	154.99019742012	0	0	0	0
76	1	1	2	1	2	2	482	0	157.056188821793	0	0	0	0
77	1	2	2	1	2	1	680	0	159.105522632599	0	0	0	0
78	1	2	1	1	2	1	408	0	161.338124513626	0	0	0	0
79	1	1	1	2	1	1	633	0	163.320813417435	0	0	0	0
80	1	1	1	2	1	1	497	0	165.536756753922	0	0	0	0
81	1	2	1	2	2	1	486	0	167.636063337326	0	0	0	0
82	1	2	1	2	2	1	429	0	169.685406446457	0	0	0	0
83	1	2	2	2	2	1	741	0	171.684747695923	0	0	0	0
84	1	1	1	1	1	1	610	0	173.983993768692	0	0	0	0
85	1	1	1	2	1	1	507	0	176.166613578796	0	0	0	0
86	1	2	1	2	2	1	481	0	178.232605457306	0	0	0	0
87	1	1	2	1	2	2	455	0	180.31525850296	0	0	0	0
88	1	2	1	2	1	2	678	0	182.331269741058	0	0	0	0
89	1	1	2	2	1	1	470	0	184.563876867294	0	0	0	0
90	1	2	1	2	2	1	590	0	186.579887866974	0	0	0	0
91	1	2	1	1	2	1	376	0	188.745837450027	0	0	0	0
92	1	1	1	2	1	1	610	0	190.695203542709	0	0	0	0
93	1	1	2	1	1	1	740	0	192.87783575058	0	0	0	0
94	1	2	1	2	2	1	568	0	195.193737268448	0	0	0	0
95	1	2	1	2	2	1	500	0	197.309715986252	0	0	0	0
96	1	2	2	2	2	1	531	0	199.359029531479	0	0	0	0
97	2	1	2	2	1	1	624	0	247.393362760544	0	0	0	0
98	2	1	2	1	1	1	529	0	249.592647790909	0	0	0	0
99	2	2	1	1	2	1	445	0	251.708625793457	0	0	0	0
100	2	1	2	2	1	1	693	0	253.724627971649	0	0	0	0
101	2	1	1	1	1	1	516	0	255.973884344101	0	0	0	0
102	2	2	2	1	2	1	609	0	258.056551218033	0	0	0	0
103	2	1	1	1	1	1	450	0	260.255840539932	0	0	0	0
104	2	2	2	1	2	1	418	0	262.271849870682	0	0	0	0
105	2	2	1	1	2	1	354	0	264.271192073822	0	0	0	0
106	2	2	1	1	2	1	422	0	266.187234640121	0	0	0	0
107	2	1	2	1	1	1	543	0	268.186580657959	0	0	0	0
108	2	1	1	2	1	1	427	0	270.319216012955	0	0	0	0
109	2	1	2	1	2	2	491	0	272.318562746048	0	0	0	0
110	2	1	2	2	1	1	881	0	274.367898464203	0	0	0	0
111	2	1	1	2	1	1	386	0	276.817088603973	0	0	0	0
112	2	1	2	2	1	1	459	0	278.766452789307	0	0	0	0
113	2	1	1	1	1	1	555	0	280.782472610474	0	0	0	0
114	2	2	2	2	2	1	631	0	282.898451805115	0	0	0	0
115	2	2	2	1	2	1	488	0	285.097731113434	0	0	0	0
116	2	1	1	2	1	1	663	0	287.1470515728	0	0	0	0
117	2	2	2	2	2	1	647	0	289.362997293472	0	0	0	0
118	2	2	1	1	2	1	608	0	291.56228852272	0	0	0	0
119	2	1	1	2	1	1	584	0	293.744909286499	0	0	0	0
120	2	1	1	2	1	1	411	0	295.894203901291	0	0	0	0
121	2	1	1	1	1	1	452	0	297.876885652542	0	0	0	0
122	2	2	1	1	2	1	476	0	299.892907619476	0	0	0	0
123	2	2	1	2	2	1	515	0	301.92556643486	0	0	0	0
124	2	2	1	2	2	1	513	0	304.008227348328	0	0	0	0
125	2	1	1	2	1	1	494	0	306.107539176941	0	0	0	0
126	2	2	2	2	2	1	555	0	308.173527240753	0	0	0	0
127	2	2	1	1	2	1	488	0	310.289501428604	0	0	0	0
128	2	1	2	2	1	1	605	0	312.355501651764	0	0	0	0
129	2	1	2	1	1	1	839	0	314.538109779358	0	0	0	0
130	2	1	2	1	1	1	543	0	316.953999757767	0	0	0	0
131	2	2	2	1	2	1	747	0	319.086640119553	0	0	0	0
132	2	1	1	1	1	1	694	0	321.419203281403	0	0	0	0
133	2	2	2	1	2	1	644	0	323.668466091156	0	0	0	0
134	2	2	1	1	2	1	397	0	325.867750883102	0	0	0	0
135	2	1	2	2	1	1	623	0	327.85044002533	0	0	0	0
136	2	2	1	1	2	1	599	0	330.049731492996	0	0	0	0
137	2	1	1	2	1	1	602	0	332.199031352997	0	0	0	0
138	2	2	2	1	2	1	547	0	334.381639242172	0	0	0	0
139	2	2	1	1	2	1	520	0	336.497614622116	0	0	0	0
140	2	1	2	1	1	1	677	0	338.580275774002	0	0	0	0
141	2	1	2	1	1	1	420	0	340.829545736313	0	0	0	0
142	2	2	1	2	2	1	420	0	342.828897476196	0	0	0	0
143	2	2	1	2	2	1	446	0	344.811581134796	0	0	0	0
144	2	2	1	2	2	1	421	0	346.827590703964	0	0	0	0
145	2	2	2	2	2	1	599	0	348.810279607773	0	0	0	0
146	2	2	2	2	2	1	465	0	350.976262331009	0	0	0	0
147	2	1	1	1	1	1	592	0	353.008940696716	0	0	0	0
148	2	2	2	1	2	1	610	0	355.191578626633	0	0	0	0
149	2	2	1	2	2	1	444	0	357.357537984848	0	0	0	0
150	2	2	2	2	2	1	548	0	359.356906890869	0	0	0	0
151	2	1	2	1	0	99	0	0	361.456223726273	0	0	0	0
152	2	2	2	1	2	1	809	0	364.055389165878	0	0	0	0
153	2	2	2	1	2	1	491	0	366.454617977142	0	0	0	0
154	2	2	2	2	2	1	769	0	368.503970623016	0	0	0	0
155	2	2	1	1	2	1	445	0	370.819889068604	0	0	0	0
156	2	1	1	1	1	1	365	0	372.819249391556	0	0	0	0
157	2	1	2	2	2	2	433	0	374.751949071884	0	0	0	0
158	2	1	1	2	1	1	634	0	376.734654664993	0	0	0	0
159	2	2	1	2	2	1	611	0	378.933939695358	0	0	0	0
160	2	2	1	2	2	1	485	0	381.116573095322	0	0	0	0
161	2	2	1	1	2	1	371	0	383.165915250778	0	0	0	0
162	2	1	1	2	1	1	463	0	385.081976652145	0	0	0	0
163	2	1	2	2	1	1	574	0	387.114638805389	0	0	0	0
164	2	2	2	2	2	1	872	0	389.280618667603	0	0	0	0
165	2	1	1	2	1	1	592	0	391.713176488876	0	0	0	0
166	2	2	2	2	2	1	699	0	393.862479448318	0	0	0	0
167	2	2	1	2	2	1	545	0	396.12841463089	0	0	0	0
168	2	2	2	2	2	1	620	0	398.244407653809	0	0	0	0
169	2	1	2	1	1	1	525	0	400.443690538406	0	0	0	0
170	2	2	2	1	2	1	546	0	402.543025255203	0	0	0	0
171	2	1	2	1	1	1	510	0	404.659000635147	0	0	0	0
172	2	1	2	2	1	1	916	0	406.725014686584	0	0	0	0
173	2	1	1	1	1	1	426	0	409.207547664642	0	0	0	0
174	2	1	1	1	1	1	409	0	411.223563432693	0	0	0	0
175	2	2	1	2	2	1	362	0	413.222924232483	0	0	0	0
176	2	1	2	2	1	1	646	0	415.155626296997	0	0	0	0
177	2	1	1	1	1	1	453	0	417.371591806412	0	0	0	0
178	2	2	1	2	2	1	445	0	419.387597799301	0	0	0	0
179	2	2	1	2	2	1	421	0	421.403617620468	0	0	0	0
180	2	2	2	1	2	1	614	0	423.402985572815	0	0	0	0
181	2	2	2	2	2	1	431	0	425.585606813431	0	0	0	0
182	2	1	1	2	1	1	520	0	427.584972143173	0	0	0	0
183	2	1	1	2	1	1	654	0	429.650978803635	0	0	0	0
184	2	1	2	1	2	2	470	0	431.866931438446	0	0	0	0
185	2	1	1	1	1	1	669	0	433.916265726089	0	0	0	0
186	2	2	1	1	2	1	667	0	436.165536642075	0	0	0	0
187	2	1	2	1	1	1	507	0	438.381497383118	0	0	0	0
188	2	1	1	1	1	1	528	0	440.48082280159	0	0	0	0
189	2	1	2	2	1	1	605	0	442.580147266388	0	0	0	0
190	2	2	2	2	2	1	583	0	444.746120929718	0	0	0	0
191	2	2	2	1	2	1	402	0	446.895421981812	0	0	0	0
192	2	1	2	2	1	1	445	0	448.844791412354	0	0	0	0
193	3	2	1	2	2	1	556	0	467.572100639343	0	0	0	0
194	3	1	2	2	1	1	504	0	469.68808722496	0	0	0	0
195	3	2	1	2	2	1	782	0	471.770753383636	0	0	0	0
196	3	2	1	2	2	1	361	0	474.119992256165	0	0	0	0
197	3	2	1	1	2	1	372	0	476.052689552307	0	0	0	0
198	3	1	1	1	1	1	406	0	478.018740177155	0	0	0	0
199	3	1	1	1	1	1	391	0	480.001423835754	0	0	0	0
200	3	2	2	1	2	1	482	0	481.95080780983	0	0	0	0
201	3	2	1	2	2	1	448	0	484.000136375427	0	0	0	0
202	3	1	2	2	1	1	473	0	485.999499797821	0	0	0	0
203	3	1	2	2	1	1	440	0	488.048842906952	0	0	0	0
204	3	2	1	1	2	1	440	0	490.064859390259	0	0	0	0
205	3	2	2	1	0	99	0	0	492.097531557083	0	0	0	0
206	3	1	1	2	1	1	496	0	494.696704387665	0	0	0	0
207	3	1	2	1	2	2	470	0	496.762707471848	0	0	0	0
208	3	2	1	1	2	1	478	0	498.778713226318	0	0	0	0
209	3	1	1	1	1	1	380	0	500.828050136566	0	0	0	0
210	3	1	2	2	2	2	528	0	502.77742767334	0	0	0	0
211	3	2	1	2	1	2	556	0	504.876758575439	0	0	0	0
212	3	1	1	2	1	1	536	0	506.99273443222	0	0	0	0
213	3	2	2	1	1	2	388	0	509.108716249466	0	0	0	0
214	3	1	2	2	1	1	623	0	511.058091640472	0	0	0	0
215	3	2	2	2	2	1	688	0	513.240725755692	0	0	0	0
216	3	1	1	1	1	1	574	0	515.506667375565	0	0	0	0
217	3	1	2	2	2	2	393	0	517.655972719193	0	0	0	0
218	3	2	2	2	1	2	466	0	519.638666152954	0	0	0	0
219	3	1	2	2	1	1	521	0	521.671344280243	0	0	0	0
220	3	1	1	2	1	1	494	0	523.770666837692	0	0	0	0
221	3	2	2	2	2	1	557	0	525.820005655289	0	0	0	0
222	3	2	1	2	2	1	496	0	527.935983657837	0	0	0	0
223	3	2	2	1	2	1	526	0	530.018652200699	0	0	0	0
224	3	1	1	2	1	1	555	0	532.11797952652	0	0	0	0
225	3	1	1	2	1	1	535	0	534.233963251114	0	0	0	0
226	3	1	2	1	1	1	435	0	536.349950790405	0	0	0	0
227	3	1	1	2	1	1	490	0	538.365959644318	0	0	0	0
228	3	2	1	2	2	1	456	0	540.431959629059	0	0	0	0
229	3	2	2	1	2	1	608	0	542.464639663696	0	0	0	0
230	3	2	2	1	2	1	522	0	544.63059926033	0	0	0	0
231	3	2	2	2	2	1	432	0	546.713278770447	0	0	0	0
232	3	2	2	1	2	1	416	0	548.712629318237	0	0	0	0
233	3	2	1	2	2	1	449	0	550.695318460464	0	0	0	0
234	3	1	2	1	1	1	504	0	552.728003501892	0	0	0	0
235	3	2	1	1	2	1	502	0	554.810664415359	0	0	0	0
236	3	1	2	1	1	1	596	0	556.86000585556	0	0	0	0
237	3	2	1	1	2	1	439	0	559.009297132492	0	0	0	0
238	3	2	1	1	2	1	456	0	561.008661746979	0	0	0	0
239	3	1	1	1	1	1	649	0	563.024688720703	0	0	0	0
240	3	2	1	1	2	1	480	0	565.223975658417	0	0	0	0
241	3	1	2	1	1	1	680	0	567.25664305687	0	0	0	0
242	3	1	2	1	1	1	414	0	569.522578239441	0	0	0	0
243	3	2	2	2	2	1	727	0	571.505272388458	0	0	0	0
244	3	1	2	1	1	1	548	0	573.821189880371	0	0	0	0
245	3	1	1	1	1	1	486	0	575.953845739365	0	0	0	0
246	3	1	2	1	1	1	421	0	578.003187417984	0	0	0	0
247	3	1	1	2	1	1	615	0	579.98588347435	0	0	0	0
248	3	1	1	1	1	1	496	0	582.168507575989	0	0	0	0
249	3	1	1	1	1	1	399	0	584.217845201492	0	0	0	0
250	3	2	1	2	2	1	456	0	586.200535774231	0	0	0	0
251	3	2	2	2	2	1	368	0	588.233222723007	0	0	0	0
252	3	2	1	1	2	1	587	0	590.149263620377	0	0	0	0
253	3	1	1	1	1	1	463	0	592.281913995743	0	0	0	0
254	3	1	2	2	2	2	416	0	594.297924995422	0	0	0	0
255	3	1	1	1	1	1	464	0	596.280618190765	0	0	0	0
256	3	1	1	2	1	1	471	0	598.313291072845	0	0	0	0
257	3	1	1	2	1	1	534	0	600.362628936768	0	0	0	0
258	3	1	2	1	1	1	635	0	602.445291757584	0	0	0	0
259	3	2	1	2	1	2	548	0	604.627920627594	0	0	0	0
260	3	1	1	2	1	1	480	0	606.743914842606	0	0	0	0
261	3	2	2	1	1	2	399	0	608.809909820557	0	0	0	0
262	3	2	2	2	2	1	633	0	610.759284734726	0	0	0	0
263	3	2	1	1	2	1	354	0	612.975241184235	0	0	0	0
264	3	1	2	1	1	1	549	0	614.891273736954	0	0	0	0
265	3	2	1	1	1	2	497	0	617.007267951965	0	0	0	0
266	3	1	2	2	1	1	639	0	619.089931726456	0	0	0	0
267	3	2	1	2	2	1	478	0	621.305883169174	0	0	0	0
268	3	1	1	2	1	1	566	0	623.338558673859	0	0	0	0
269	3	2	1	2	2	1	634	0	625.454547643661	0	0	0	0
270	3	1	2	2	1	1	451	0	627.653833150864	0	0	0	0
271	3	2	1	1	2	1	418	0	629.669838428497	0	0	0	0
272	3	1	2	1	1	1	787	0	631.669194698334	0	0	0	0
273	3	2	2	2	2	1	582	0	634.018445730209	0	0	0	0
274	3	2	2	1	1	2	608	0	636.167752742767	0	0	0	0
275	3	2	2	1	2	1	627	0	638.333721399307	0	0	0	0
276	3	2	2	2	2	1	667	0	640.533008813858	0	0	0	0
277	3	1	1	2	1	1	579	0	642.765616178513	0	0	0	0
278	3	2	2	2	2	1	509	0	644.914921283722	0	0	0	0
279	3	1	1	1	1	1	515	0	646.980928659439	0	0	0	0
280	3	1	2	1	1	1	408	0	649.080253362656	0	0	0	0
281	3	2	2	2	2	1	489	0	651.079603672028	0	0	0	0
282	3	2	2	1	2	1	543	0	653.128937959671	0	0	0	0
283	3	1	2	2	1	1	572	0	655.228267669678	0	0	0	0
284	3	2	2	1	2	1	495	0	657.360893964767	0	0	0	0
285	3	2	2	2	2	1	509	0	659.426908254623	0	0	0	0
286	3	2	1	1	2	1	347	0	661.492892980576	0	0	0	0
287	3	1	1	1	1	1	424	0	663.392293930054	0	0	0	0
288	3	1	2	2	1	1	585	0	665.374981403351	0	0	0	0
289	4	2	2	2	2	1	683	0	768.724917173386	0	0	0	0
290	4	1	2	2	1	1	586	0	770.974192142487	0	0	0	0
291	4	2	2	1	2	1	462	0	773.123509168625	0	0	0	0
292	4	1	1	1	1	1	436	0	775.139520406723	0	0	0	0
293	4	2	1	1	2	1	469	0	777.138868570328	0	0	0	0
294	4	1	1	1	1	1	364	0	779.171545505524	0	0	0	0
295	4	1	2	2	2	2	431	0	781.120913982391	0	0	0	0
296	4	2	2	2	1	2	465	0	783.103605747223	0	0	0	0
297	4	2	1	2	2	1	344	0	785.119619369507	0	0	0	0
298	4	2	1	2	2	1	341	0	787.019005298615	0	0	0	0
299	4	2	1	1	2	1	409	0	788.918394565582	0	0	0	0
300	4	2	1	1	2	1	403	0	790.901088953018	0	0	0	0
301	4	2	2	2	2	1	567	0	792.85045003891	0	0	0	0
302	4	2	2	2	2	1	473	0	794.96642780304	0	0	0	0
303	4	1	1	2	1	1	584	0	797.03243637085	0	0	0	0
304	4	2	1	2	2	1	450	0	799.181739807129	0	0	0	0
305	4	2	2	2	1	2	387	0	801.181098461151	0	0	0	0
306	4	1	2	1	2	2	381	0	803.147120475769	0	0	0	0
307	4	1	1	2	1	1	543	0	805.096495389938	0	0	0	0
308	4	1	2	2	1	1	364	0	807.195818424225	0	0	0	0
309	4	1	1	1	1	1	376	0	809.111869812012	0	0	0	0
310	4	1	2	2	2	2	388	0	811.044580221176	0	0	0	0
311	4	2	2	2	1	2	389	0	813.010605335236	0	0	0	0
312	4	2	2	1	2	1	584	0	814.959975004196	0	0	0	0
313	4	1	1	2	1	1	747	0	817.092597484589	0	0	0	0
314	4	1	1	1	1	1	408	0	819.391868591309	0	0	0	0
315	4	1	2	1	1	1	569	0	821.374564409256	0	0	0	0
316	4	1	1	2	1	1	437	0	823.507208347321	0	0	0	0
317	4	1	2	2	1	1	621	0	825.506559610367	0	0	0	0
318	4	2	2	2	2	1	358	0	827.705843687057	0	0	0	0
319	4	2	2	2	2	1	394	0	829.638559579849	0	0	0	0
320	4	1	1	2	1	1	459	0	831.604576826096	0	0	0	0
321	4	1	1	2	1	1	498	0	833.653920888901	0	0	0	0
322	4	1	2	1	1	1	551	0	835.736589670181	0	0	0	0
323	4	1	2	1	1	1	507	0	837.869232177734	0	0	0	0
324	4	2	2	2	2	1	511	0	839.968542337418	0	0	0	0
325	4	2	1	2	2	1	349	0	842.051197052002	0	0	0	0
326	4	1	2	1	1	1	568	0	843.983909130096	0	0	0	0
327	4	2	2	1	2	1	563	0	846.11655664444	0	0	0	0
328	4	2	1	2	0	99	0	0	848.232540845871	0	0	0	0
329	4	1	1	2	1	1	512	0	850.815037727356	0	0	0	0
330	4	1	1	2	1	1	455	0	852.88102388382	0	0	0	0
331	4	1	1	1	1	1	423	0	854.897032737732	0	0	0	0
332	4	2	2	1	2	1	552	0	856.879740476608	0	0	0	0
333	4	2	2	2	2	1	508	0	858.995723485947	0	0	0	0
334	4	2	2	1	2	1	377	0	861.078377246857	0	0	0	0
335	4	2	1	2	2	1	420	0	863.011093139648	0	0	0	0
336	4	1	1	1	1	1	413	0	865.010442495346	0	0	0	0
337	4	2	1	1	2	1	502	0	867.009798765182	0	0	0	0
338	4	1	1	1	1	1	523	0	869.092447519302	0	0	0	0
339	4	2	2	1	2	1	489	0	871.175102949142	0	0	0	0
340	4	2	1	2	1	2	431	0	873.241113185883	0	0	0	0
341	4	1	1	1	2	2	638	0	875.257127523422	0	0	0	0
342	4	2	1	1	1	2	647	0	877.473082542419	0	0	0	0
343	4	1	2	2	1	1	582	0	879.689032077789	0	0	0	0
344	4	2	2	1	2	1	793	0	881.838318347931	0	0	0	0
345	4	1	2	2	1	1	667	0	884.204230070114	0	0	0	0
346	4	1	2	1	1	1	547	0	886.436844348907	0	0	0	0
347	4	2	2	1	2	1	470	0	888.552824020386	0	0	0	0
348	4	1	2	1	1	1	486	0	890.585491895676	0	0	0	0
349	4	1	2	1	1	1	469	0	892.651490449905	0	0	0	0
350	4	2	1	2	2	1	532	0	894.68416428566	0	0	0	0
351	4	2	2	2	2	1	592	0	896.783491373062	0	0	0	0
352	4	1	2	2	1	1	898	0	898.932796001434	0	0	0	0
353	4	2	1	1	2	1	560	0	901.415320396423	0	0	0	0
354	4	2	2	2	2	1	476	0	903.531298398972	0	0	0	0
355	4	2	2	1	2	1	436	0	905.563982248306	0	0	0	0
356	4	2	2	1	2	1	397	0	907.546672344208	0	0	0	0
357	4	1	1	1	1	1	703	0	909.496029138565	0	0	0	0
358	4	2	2	1	2	1	518	0	911.761980056763	0	0	0	0
359	4	1	2	1	1	1	746	0	913.861301660538	0	0	0	0
360	4	1	2	1	1	1	414	0	916.177210330963	0	0	0	0
361	4	1	2	2	1	1	633	0	918.14322924614	0	0	0	0
362	4	1	2	2	1	1	505	0	920.325872182846	0	0	0	0
363	4	2	2	1	2	1	695	0	922.408529043198	0	0	0	0
364	4	1	2	2	1	1	477	0	924.674461126328	0	0	0	0
365	4	2	1	1	2	1	684	0	926.740452528	0	0	0	0
366	4	2	1	1	2	1	418	0	928.973071575165	0	0	0	0
367	4	2	1	2	2	1	635	0	930.972418546677	0	0	0	0
368	4	2	1	2	2	1	411	0	933.188376903534	0	0	0	0
369	4	2	1	1	2	1	444	0	935.171056032181	0	0	0	0
370	4	2	1	1	2	1	363	0	937.203736066818	0	0	0	0
371	4	2	1	2	2	1	559	0	939.136441469193	0	0	0	0
372	4	1	1	2	1	1	459	0	941.252424478531	0	0	0	0
373	4	1	1	1	1	1	475	0	943.268441915512	0	0	0	0
374	4	1	1	2	1	1	394	0	945.301100969315	0	0	0	0
375	4	1	2	1	1	1	628	0	947.267142295837	0	0	0	0
376	4	2	1	1	2	1	541	0	949.466434955597	0	0	0	0
377	4	2	1	1	2	1	361	0	951.582421064377	0	0	0	0
378	4	1	2	1	1	1	516	0	953.515120744705	0	0	0	0
379	4	2	1	2	1	2	481	0	955.614444732666	0	0	0	0
380	4	1	1	2	1	1	720	0	957.647121191025	0	0	0	0
381	4	1	2	2	1	1	517	0	959.946375846863	0	0	0	0
382	4	1	1	2	1	1	379	0	962.029029846191	0	0	0	0
383	4	1	1	1	1	1	646	0	963.961738586426	0	0	0	0
384	4	1	1	1	1	1	437	0	966.177688598633	0	0	0	0
