Trial	Block	stimside	congruentcondition	colors	respside	accuracy	RT	reward	trialtime	tmstime	query	qresp	qrt
1	1	1	1	1	1	1	478	0	-0.0141143798828125	0	0	0	0
2	1	2	1	2	2	1	477	0	2.0118932723999	0	0	0	0
3	1	1	1	2	1	1	290	0	4.03790044784546	0	0	0	0
4	1	2	1	1	2	1	306	0	5.87729620933533	0	0	0	0
5	1	1	1	2	1	1	339	0	7.7566933631897	0	0	0	0
6	1	1	2	1	2	2	302	0	9.6494083404541	0	0	0	0
7	1	1	2	2	1	1	561	0	11.502138376236	0	0	0	0
8	1	2	1	2	2	1	618	0	13.62144780159	0	0	0	0
9	1	1	1	2	1	1	358	0	15.7940745353699	0	0	0	0
10	1	1	1	2	1	1	454	0	17.713440656662	0	0	0	0
11	1	2	1	2	2	1	437	0	19.739449262619	0	0	0	0
12	1	1	1	1	1	1	466	0	21.7254686355591	0	0	0	0
13	1	2	1	2	2	1	512	0	23.7514793872833	0	0	0	0
14	1	2	1	2	2	1	470	0	25.8174784183502	0	0	0	0
15	1	2	1	1	2	1	444	0	27.8434855937958	0	0	0	0
16	1	1	2	1	2	2	368	0	29.856160402298	0	0	0	0
17	1	2	1	2	1	2	604	0	31.7888627052307	0	0	0	0
18	1	2	1	2	2	1	675	0	33.948169708252	0	0	0	0
19	1	1	1	2	1	1	377	0	36.1741092205048	0	0	0	0
20	1	2	1	1	2	1	476	0	38.1068203449249	0	0	0	0
21	1	1	2	2	2	2	469	0	40.1461546421051	0	0	0	0
22	1	2	1	1	2	1	669	0	42.1854937076569	0	0	0	0
23	1	1	1	1	1	1	419	0	44.411438703537	0	0	0	0
24	1	2	1	2	2	1	527	0	46.3841257095337	0	0	0	0
25	1	2	2	2	2	1	663	0	48.4634487628937	0	0	0	0
26	1	2	1	1	2	1	492	0	50.6760716438293	0	0	0	0
27	1	2	1	2	2	1	550	0	52.7287316322327	0	0	0	0
28	1	1	2	2	2	2	415	0	54.8480432033539	0	0	0	0
29	1	2	2	1	2	1	602	0	56.8207454681396	0	0	0	0
30	1	1	2	1	1	1	564	0	58.9800362586975	0	0	0	0
31	1	2	2	2	2	1	524	0	61.0993564128876	0	0	0	0
32	1	1	1	1	1	1	639	0	63.1920025348663	0	0	0	0
33	1	2	1	1	2	1	487	0	65.3912975788116	0	0	0	0
34	1	1	1	2	1	1	368	0	67.4306297302246	0	0	0	0
35	1	2	2	1	2	1	592	0	69.3500173091888	0	0	0	0
36	1	2	2	2	2	1	656	0	71.4959862232208	0	0	0	0
37	1	2	1	2	1	2	596	0	73.7219257354736	0	0	0	0
38	1	2	2	2	2	1	549	0	75.8812317848206	0	0	0	0
39	1	2	2	1	2	1	470	0	78.0005404949188	0	0	0	0
40	1	1	1	2	1	1	667	0	80.0265517234802	0	0	0	0
41	1	1	1	2	1	1	538	0	82.2525017261505	0	0	0	0
42	1	1	2	2	2	2	517	0	84.3451597690582	0	0	0	0
43	1	1	1	2	1	1	675	0	86.4111607074738	0	0	0	0
44	1	2	1	1	2	1	505	0	88.6371026039124	0	0	0	0
45	1	1	2	2	1	1	596	0	90.6897675991058	0	0	0	0
46	1	2	1	1	2	1	642	0	92.8357453346252	0	0	0	0
47	1	1	2	2	1	1	659	0	95.0350382328033	0	0	0	0
48	1	1	2	2	1	1	552	0	97.2609786987305	0	0	0	0
49	1	2	2	2	2	1	586	0	99.3802928924561	0	0	0	0
50	1	1	2	2	1	1	656	0	101.526269674301	0	0	0	0
51	1	2	2	2	2	1	547	0	103.738887310028	0	0	0	0
52	1	1	2	2	1	1	577	0	105.844878673553	0	0	0	0
53	1	2	1	1	2	1	701	0	107.977527618408	0	0	0	0
54	1	1	1	1	1	1	626	0	110.243454217911	0	0	0	0
55	1	2	2	2	2	1	547	0	112.442751646042	0	0	0	0
56	1	1	2	1	1	1	729	0	114.548733472824	0	0	0	0
57	1	2	2	1	2	1	561	0	116.827994346619	0	0	0	0
58	1	1	2	1	1	1	498	0	118.9473092556	0	0	0	0
59	1	2	2	1	2	1	529	0	121.013318538666	0	0	0	0
60	1	1	1	1	1	1	632	0	123.092640399933	0	0	0	0
61	1	1	1	1	1	1	471	0	125.278613567352	0	0	0	0
62	1	1	1	2	1	1	428	0	127.304625749588	0	0	0	0
63	1	2	2	2	2	1	506	0	129.290649414062	0	0	0	0
64	1	2	1	2	2	1	574	0	131.343317270279	0	0	0	0
65	1	1	1	2	1	1	650	0	133.475965738297	0	0	0	0
66	1	1	2	1	1	1	722	0	135.675254583359	0	0	0	0
67	1	1	2	1	1	1	426	0	137.954521417618	0	0	0	0
68	1	2	1	1	2	1	550	0	139.927218198776	0	0	0	0
69	1	1	2	1	1	1	572	0	142.033209562302	0	0	0	0
70	1	2	2	1	2	1	639	0	144.165860652924	0	0	0	0
71	1	1	1	1	1	1	784	0	146.36514377594	0	0	0	0
72	1	2	2	1	2	1	595	0	148.697737693787	0	0	0	0
73	1	1	1	2	1	1	529	0	150.843712568283	0	0	0	0
74	1	2	1	1	2	1	546	0	152.923036336899	0	0	0	0
75	1	1	2	2	1	1	493	0	155.015703678131	0	0	0	0
76	1	2	1	1	2	1	656	0	157.068373680115	0	0	0	0
77	1	1	2	1	1	1	462	0	159.294321537018	0	0	0	0
78	1	2	2	1	2	1	481	0	161.307014703751	0	0	0	0
79	1	2	2	1	2	1	539	0	163.346352815628	0	0	0	0
80	1	1	2	2	1	1	446	0	165.439009666443	0	0	0	0
81	1	1	1	1	1	1	433	0	167.451698303223	0	0	0	0
82	1	2	2	1	2	1	449	0	169.451065301895	0	0	0	0
83	1	1	1	1	1	1	770	0	171.450420856476	0	0	0	0
84	1	2	1	2	2	1	554	0	173.769677639008	0	0	0	0
85	1	2	2	2	2	1	386	0	175.875657320023	0	0	0	0
86	1	1	2	2	1	1	534	0	177.821709394455	0	0	0	0
87	1	2	2	2	2	1	570	0	179.91436624527	0	0	0	0
88	1	1	2	1	1	1	491	0	182.03368639946	0	0	0	0
89	1	1	2	1	1	1	443	0	184.073035240173	0	0	0	0
90	1	2	2	1	2	1	475	0	186.072388648987	0	0	0	0
91	1	2	2	2	2	1	561	0	188.098402261734	0	0	0	0
92	1	2	2	2	1	2	452	0	190.231054782867	0	0	0	0
93	1	1	1	1	1	1	627	0	192.257072687149	0	0	0	0
94	1	2	2	1	2	1	598	0	194.429710388184	0	0	0	0
95	1	1	2	1	1	1	428	0	196.57569527626	0	0	0	0
96	1	1	1	1	1	1	771	0	198.561716794968	0	0	0	0
97	2	1	1	2	1	1	438	0	212.237341403961	0	0	0	0
98	2	1	2	1	1	1	436	0	214.223366260529	0	0	0	0
99	2	2	1	2	2	1	386	0	216.209402322769	0	0	0	0
100	2	1	2	2	1	1	477	0	218.142111301422	0	0	0	0
101	2	1	2	2	1	1	531	0	220.168138742447	0	0	0	0
102	2	2	1	1	2	1	364	0	222.247463226318	0	0	0	0
103	2	1	2	1	1	1	479	0	224.180183649063	0	0	0	0
104	2	1	1	2	1	1	480	0	226.219526290894	0	0	0	0
105	2	1	2	2	1	1	462	0	228.245545625687	0	0	0	0
106	2	2	1	1	2	1	361	0	230.258236169815	0	0	0	0
107	2	2	1	1	2	1	394	0	232.177626609802	0	0	0	0
108	2	2	2	2	1	2	483	0	234.13700056076	0	0	0	0
109	2	2	2	1	2	1	589	0	236.189683675766	0	0	0	0
110	2	1	2	2	1	1	516	0	238.335665225983	0	0	0	0
111	2	2	2	1	2	1	545	0	240.401663303375	0	0	0	0
112	2	1	1	1	1	1	660	0	242.494333744049	0	0	0	0
113	2	1	1	1	1	1	353	0	244.706955432892	0	0	0	0
114	2	2	1	1	2	1	369	0	246.626347303391	0	0	0	0
115	2	1	1	2	1	1	625	0	248.545729398727	0	0	0	0
116	2	1	1	2	1	1	452	0	250.718375682831	0	0	0	0
117	2	2	2	1	2	1	573	0	252.717732429504	0	0	0	0
118	2	1	2	2	1	1	535	0	254.837050676346	0	0	0	0
119	2	2	1	1	2	1	658	0	256.929722309113	0	0	0	0
120	2	2	2	2	1	2	527	0	259.155676364899	0	0	0	0
121	2	1	2	1	1	1	495	0	261.235008239746	0	0	0	0
122	2	2	1	2	2	1	658	0	263.287698745728	0	0	0	0
123	2	2	2	1	2	1	486	0	265.500315189362	0	0	0	0
124	2	1	1	1	1	1	551	0	267.539671421051	0	0	0	0
125	2	1	1	2	1	1	495	0	269.658993244171	0	0	0	0
126	2	1	2	1	1	1	556	0	271.711678266525	0	0	0	0
127	2	1	2	2	1	1	490	0	273.817674636841	0	0	0	0
128	2	2	2	2	2	1	521	0	275.857024431229	0	0	0	0
129	2	2	2	1	2	1	402	0	277.936352729797	0	0	0	0
130	2	2	1	1	2	1	514	0	279.89573764801	0	0	0	0
131	2	1	1	1	1	1	544	0	281.96173620224	0	0	0	0
132	2	1	1	1	1	1	844	0	284.054402589798	0	0	0	0
133	2	2	2	1	2	1	621	0	286.453647851944	0	0	0	0
134	2	1	2	2	1	1	616	0	288.626286268234	0	0	0	0
135	2	1	1	1	1	1	532	0	290.798929214478	0	0	0	0
136	2	1	2	1	1	1	512	0	292.891588687897	0	0	0	0
137	2	2	2	1	2	1	455	0	294.970932722092	0	0	0	0
138	2	1	1	2	1	1	651	0	296.983621358871	0	0	0	0
139	2	1	1	2	1	1	563	0	299.182923316956	0	0	0	0
140	2	1	1	2	1	1	616	0	301.315578222275	0	0	0	0
141	2	1	2	2	1	1	564	0	303.501548290253	0	0	0	0
142	2	1	1	2	1	1	495	0	305.634209394455	0	0	0	0
143	2	2	2	2	2	1	539	0	307.686893224716	0	0	0	0
144	2	2	1	1	2	1	502	0	309.779554605484	0	0	0	0
145	2	1	2	2	1	1	563	0	311.832230567932	0	0	0	0
146	2	1	2	1	1	1	612	0	313.964889764786	0	0	0	0
147	2	2	2	1	2	1	400	0	316.137539625168	0	0	0	0
148	2	1	1	1	1	1	576	0	318.096910715103	0	0	0	0
149	2	1	2	1	1	1	468	0	320.229568243027	0	0	0	0
150	2	2	1	2	2	1	474	0	322.255584716797	0	0	0	0
151	2	2	2	1	2	1	392	0	324.281611680984	0	0	0	0
152	2	2	1	1	2	1	464	0	326.240989208221	0	0	0	0
153	2	2	1	2	2	1	534	0	328.267016410828	0	0	0	0
154	2	2	2	2	2	1	490	0	330.359684705734	0	0	0	0
155	2	2	2	2	2	1	402	0	332.399032831192	0	0	0	0
156	2	1	1	1	1	1	507	0	334.358409643173	0	0	0	0
157	2	2	1	2	2	1	497	0	336.424430370331	0	0	0	0
158	2	2	1	2	2	1	487	0	338.490440368652	0	0	0	0
159	2	2	1	1	2	1	407	0	340.529786348343	0	0	0	0
160	2	1	1	2	1	1	624	0	342.489169359207	0	0	0	0
161	2	1	2	1	1	1	532	0	344.661804437637	0	0	0	0
162	2	2	2	2	1	2	564	0	346.741149663925	0	0	0	0
163	2	2	1	2	2	1	711	0	348.873812675476	0	0	0	0
164	2	1	1	1	1	1	600	0	351.153088331223	0	0	0	0
165	2	2	1	2	2	1	566	0	353.299069643021	0	0	0	0
166	2	1	1	2	1	1	591	0	355.418393611908	0	0	0	0
167	2	2	2	1	2	1	652	0	357.564388275146	0	0	0	0
168	2	2	1	2	2	1	696	0	359.777011394501	0	0	0	0
169	2	1	2	1	1	1	534	0	362.042960643768	0	0	0	0
170	2	2	1	2	2	1	591	0	364.122307300568	0	0	0	0
171	2	2	2	2	2	1	653	0	366.268297433853	0	0	0	0
172	2	1	2	2	1	1	653	0	368.46760225296	0	0	0	0
173	2	2	1	1	2	1	486	0	370.66690158844	0	0	0	0
174	2	2	2	2	1	2	521	0	372.719588756561	0	0	0	0
175	2	1	2	1	1	1	761	0	374.79892373085	0	0	0	0
176	2	2	2	2	2	1	650	0	377.118187427521	0	0	0	0
177	2	2	2	2	2	1	595	0	379.317495346069	0	0	0	0
178	2	2	1	1	2	1	489	0	381.463478565216	0	0	0	0
179	2	1	1	1	1	1	548	0	383.516161203384	0	0	0	0
180	2	2	1	1	2	1	493	0	385.635489225388	0	0	0	0
181	2	2	2	1	2	1	478	0	387.674845457077	0	0	0	0
182	2	1	2	2	1	1	507	0	389.700880289078	0	0	0	0
183	2	1	1	1	1	1	559	0	391.753564596176	0	0	0	0
184	2	2	1	2	2	1	569	0	393.872890710831	0	0	0	0
185	2	2	1	2	2	1	360	0	395.992214202881	0	0	0	0
186	2	1	2	2	1	1	545	0	397.911608695984	0	0	0	0
187	2	1	1	2	1	1	348	0	400.004288196564	0	0	0	0
188	2	1	2	1	1	1	415	0	401.897022724152	0	0	0	0
189	2	1	2	1	1	1	418	0	403.869729757309	0	0	0	0
190	2	2	2	1	2	1	456	0	405.85577082634	0	0	0	0
191	2	2	2	2	1	2	518	0	407.881786346436	0	0	0	0
192	2	1	1	1	1	1	628	0	409.94779920578	0	0	0	0
193	3	1	1	2	1	1	588	0	422.957029342651	0	0	0	0
194	3	1	2	1	2	2	377	0	425.103016614914	0	0	0	0
195	3	1	2	2	1	1	508	0	427.035743713379	0	0	0	0
196	3	1	1	1	2	2	514	0	429.101749658585	0	0	0	0
197	3	2	2	2	1	2	667	0	431.181101560593	0	0	0	0
198	3	2	2	2	2	1	542	0	433.393728733063	0	0	0	0
199	3	1	2	2	1	1	569	0	435.486412286758	0	0	0	0
200	3	2	2	2	2	1	578	0	437.605737686157	0	0	0	0
201	3	2	2	1	2	1	480	0	439.751731395721	0	0	0	0
202	3	2	2	2	2	1	443	0	441.804417610168	0	0	0	0
203	3	2	1	2	2	1	412	0	443.803777217865	0	0	0	0
204	3	2	2	1	2	1	460	0	445.763158321381	0	0	0	0
205	3	2	1	2	2	1	488	0	447.775856256485	0	0	0	0
206	3	1	2	1	1	1	355	0	449.828548669815	0	0	0	0
207	3	2	2	2	2	1	515	0	451.747939348221	0	0	0	0
208	3	1	1	2	1	1	601	0	453.813959360123	0	0	0	0
209	3	1	1	2	1	1	386	0	455.973275661469	0	0	0	0
210	3	1	1	1	2	2	437	0	457.906006336212	0	0	0	0
211	3	1	1	1	1	1	779	0	459.892034769058	0	0	0	0
212	3	1	1	1	1	1	474	0	462.237970590591	0	0	0	0
213	3	2	1	1	2	1	495	0	464.263998746872	0	0	0	0
214	3	2	2	1	2	1	586	0	466.316678524017	0	0	0	0
215	3	2	2	1	2	1	750	0	468.44934630394	0	0	0	0
216	3	2	1	2	2	1	548	0	470.755282640457	0	0	0	0
217	3	1	2	1	1	1	660	0	472.874618768692	0	0	0	0
218	3	2	1	1	2	1	688	0	475.087255716324	0	0	0	0
219	3	2	2	1	2	1	513	0	477.326540708542	0	0	0	0
220	3	2	1	2	2	1	599	0	479.392562627792	0	0	0	0
221	3	2	1	1	2	1	500	0	481.538556575775	0	0	0	0
222	3	1	1	1	1	1	465	0	483.591241598129	0	0	0	0
223	3	1	2	1	1	1	483	0	485.603937625885	0	0	0	0
224	3	1	2	1	1	1	543	0	487.656620740891	0	0	0	0
225	3	2	1	2	2	1	618	0	489.74930024147	0	0	0	0
226	3	1	2	1	0	99	0	0	491.921952724457	0	0	0	0
227	3	1	2	1	1	1	504	0	494.494479656219	0	0	0	0
228	3	1	1	1	1	1	732	0	496.547162294388	0	0	0	0
229	3	2	2	2	2	1	639	0	498.839771747589	0	0	0	0
230	3	1	1	2	1	1	693	0	501.025752782822	0	0	0	0
231	3	1	2	2	1	1	542	0	503.26505279541	0	0	0	0
232	3	1	1	2	1	1	434	0	505.357721567154	0	0	0	0
233	3	1	1	2	1	1	482	0	507.357095718384	0	0	0	0
234	3	2	1	2	2	1	515	0	509.396452665329	0	0	0	0
235	3	2	1	1	2	1	363	0	511.47580242157	0	0	0	0
236	3	1	1	2	1	1	531	0	513.395192861557	0	0	0	0
237	3	2	2	2	2	1	701	0	515.474544525146	0	0	0	0
238	3	1	1	1	1	1	592	0	517.72717165947	0	0	0	0
239	3	1	1	1	1	1	432	0	519.886493206024	0	0	0	0
240	3	2	1	1	2	1	529	0	521.885865449905	0	0	0	0
241	3	2	1	2	1	2	514	0	523.965203762054	0	0	0	0
242	3	1	1	2	1	1	751	0	526.031226396561	0	0	0	0
243	3	2	1	2	2	1	349	0	528.337163448334	0	0	0	0
244	3	2	2	1	2	1	564	0	530.243236780167	0	0	0	0
245	3	2	2	2	2	1	598	0	532.37589931488	0	0	0	0
246	3	1	2	2	1	1	621	0	534.521886587143	0	0	0	0
247	3	1	2	2	1	1	768	0	536.694536209106	0	0	0	0
248	3	1	1	2	1	1	489	0	539.013812303543	0	0	0	0
249	3	1	1	1	1	1	434	0	541.05317234993	0	0	0	0
250	3	1	1	2	1	1	490	0	543.052535772324	0	0	0	0
251	3	1	2	2	1	1	674	0	545.091904640198	0	0	0	0
252	3	1	1	2	1	1	561	0	547.31787276268	0	0	0	0
253	3	2	1	2	2	1	369	0	549.43720459938	0	0	0	0
254	3	2	1	1	2	1	402	0	551.356601715088	0	0	0	0
255	3	1	1	1	1	1	402	0	553.315986394882	0	0	0	0
256	3	1	2	1	1	1	421	0	555.28869843483	0	0	0	0
257	3	2	2	2	2	1	564	0	557.274746417999	0	0	0	0
258	3	1	2	2	1	1	484	0	559.394072294235	0	0	0	0
259	3	2	2	1	2	1	364	0	561.433437347412	0	0	0	0
260	3	2	1	1	2	1	381	0	563.352838754654	0	0	0	0
261	3	2	1	1	2	1	379	0	565.298895359039	0	0	0	0
262	3	2	2	1	2	1	497	0	567.244947433472	0	0	0	0
263	3	1	1	2	1	1	340	0	569.297635793686	0	0	0	0
264	3	1	2	1	1	1	439	0	571.190380573273	0	0	0	0
265	3	1	1	1	1	1	678	0	573.176419258118	0	0	0	0
266	3	2	2	1	2	1	563	0	575.402384281158	0	0	0	0
267	3	1	1	1	1	1	567	0	577.535058259964	0	0	0	0
268	3	1	2	1	1	1	497	0	579.654382705688	0	0	0	0
269	3	2	1	1	2	1	467	0	581.707082271576	0	0	0	0
270	3	1	2	2	1	1	574	0	583.719775676727	0	0	0	0
271	3	2	1	1	2	1	402	0	585.852443218231	0	0	0	0
272	3	2	1	1	2	1	402	0	587.811825275421	0	0	0	0
273	3	2	2	1	2	1	411	0	589.77121925354	0	0	0	0
274	3	2	1	1	2	1	468	0	591.730598688126	0	0	0	0
275	3	1	2	2	1	1	457	0	593.756637334824	0	0	0	0
276	3	1	2	1	1	1	574	0	595.769330263138	0	0	0	0
277	3	2	2	1	2	1	543	0	597.902003288269	0	0	0	0
278	3	2	2	2	2	1	523	0	599.99467587471	0	0	0	0
279	3	2	1	2	2	1	428	0	602.074026346207	0	0	0	0
280	3	2	2	1	2	1	513	0	604.060069322586	0	0	0	0
281	3	2	2	2	2	1	503	0	606.126092433929	0	0	0	0
282	3	1	2	2	1	1	555	0	608.178775548935	0	0	0	0
283	3	1	2	2	1	1	404	0	610.298116445541	0	0	0	0
284	3	2	2	2	2	1	511	0	612.270838260651	0	0	0	0
285	3	1	2	1	1	1	636	0	614.336846351624	0	0	0	0
286	3	2	1	2	1	2	475	0	616.522838830948	0	0	0	0
287	3	1	2	2	1	1	672	0	618.548863649368	0	0	0	0
288	3	2	1	2	1	2	417	0	620.788167715073	0	0	0	0
289	4	2	1	1	2	1	609	0	634.877089262009	0	0	0	0
290	4	1	2	2	1	1	537	0	637.036406755447	0	0	0	0
291	4	2	1	1	2	1	572	0	639.129089832306	0	0	0	0
292	4	2	1	1	2	1	534	0	641.248432397842	0	0	0	0
293	4	2	1	2	2	1	400	0	643.341112375259	0	0	0	0
294	4	2	2	2	1	2	408	0	645.300489664078	0	0	0	0
295	4	2	2	1	2	1	636	0	647.273215770721	0	0	0	0
296	4	2	1	2	2	1	706	0	649.459192752838	0	0	0	0
297	4	1	2	1	1	1	597	0	651.71181845665	0	0	0	0
298	4	2	2	2	2	1	635	0	653.857814788818	0	0	0	0
299	4	1	2	1	1	1	612	0	656.057129621506	0	0	0	0
300	4	1	1	1	1	1	765	0	658.216449737549	0	0	0	0
301	4	2	2	1	2	1	470	0	660.535723686218	0	0	0	0
302	4	1	1	2	1	1	612	0	662.561760663986	0	0	0	0
303	4	1	2	2	1	1	564	0	664.721089363098	0	0	0	0
304	4	1	1	1	2	2	519	0	666.853752613068	0	0	0	0
305	4	2	1	1	2	1	568	0	668.933105230331	0	0	0	0
306	4	1	1	2	1	1	595	0	671.065768241882	0	0	0	0
307	4	1	2	2	1	1	569	0	673.211770772934	0	0	0	0
308	4	1	2	1	1	1	626	0	675.331105709076	0	0	0	0
309	4	1	2	2	1	1	557	0	677.503757238388	0	0	0	0
310	4	2	1	2	2	1	597	0	679.623096704483	0	0	0	0
311	4	2	1	1	2	1	487	0	681.782417297363	0	0	0	0
312	4	1	2	1	1	1	543	0	683.821779251099	0	0	0	0
313	4	1	1	1	1	1	506	0	685.914467334747	0	0	0	0
314	4	2	2	1	2	1	541	0	687.967155218124	0	0	0	0
315	4	1	1	2	1	1	556	0	690.07316827774	0	0	0	0
316	4	1	1	1	1	1	649	0	692.179168701172	0	0	0	0
317	4	1	2	2	1	1	450	0	694.378484725952	0	0	0	0
318	4	2	1	1	2	1	386	0	696.377861499786	0	0	0	0
319	4	1	1	2	1	1	543	0	698.310585737228	0	0	0	0
320	4	2	1	2	2	1	369	0	700.403268575668	0	0	0	0
321	4	1	1	1	1	1	557	0	702.335995674133	0	0	0	0
322	4	2	2	1	2	1	506	0	704.442003250122	0	0	0	0
323	4	2	2	2	1	2	646	0	706.494697332382	0	0	0	0
324	4	2	1	2	2	1	854	0	708.694020271301	0	0	0	0
325	4	2	2	2	2	1	931	0	711.106589317322	0	0	0	0
326	4	2	2	2	2	1	475	0	713.585824728012	0	0	0	0
327	4	1	2	1	1	1	488	0	715.611860752106	0	0	0	0
328	4	2	2	2	2	1	553	0	717.651213645935	0	0	0	0
329	4	2	1	2	2	1	776	0	719.757226705551	0	0	0	0
330	4	2	1	1	2	1	458	0	722.089829206467	0	0	0	0
331	4	2	1	1	2	1	479	0	724.102542638779	0	0	0	0
332	4	2	2	1	2	1	574	0	726.14190530777	0	0	0	0
333	4	2	2	2	2	1	578	0	728.274572372437	0	0	0	0
334	4	1	2	1	1	1	381	0	730.407237291336	0	0	0	0
335	4	1	1	2	1	1	400	0	732.339966773987	0	0	0	0
336	4	1	2	1	1	1	487	0	734.286031723022	0	0	0	0
337	4	2	2	2	2	1	521	0	736.338722229004	0	0	0	0
338	4	2	2	1	2	1	572	0	738.431403636932	0	0	0	0
339	4	2	1	2	2	1	429	0	740.550746679306	0	0	0	0
340	4	1	2	1	1	1	579	0	742.5367872715	0	0	0	0
341	4	1	2	1	1	1	534	0	744.669452428818	0	0	0	0
342	4	1	2	2	0	99	0	0	746.762138366699	0	0	0	0
343	4	2	2	2	2	1	621	0	749.334673404694	0	0	0	0
344	4	2	2	2	2	1	652	0	751.520654678345	0	0	0	0
345	4	2	1	2	2	1	477	0	753.719970703125	0	0	0	0
346	4	2	2	1	2	1	538	0	755.746008396149	0	0	0	0
347	4	1	2	2	1	1	397	0	757.838680267334	0	0	0	0
348	4	2	1	2	2	1	637	0	759.798073768616	0	0	0	0
349	4	1	2	2	1	1	364	0	761.984063625336	0	0	0	0
350	4	1	2	2	1	1	372	0	763.903458595276	0	0	0	0
351	4	1	1	1	2	2	469	0	765.822864770889	0	0	0	0
352	4	2	2	2	2	1	651	0	767.848897695541	0	0	0	0
353	4	1	1	1	1	1	438	0	770.061537265778	0	0	0	0
354	4	1	1	2	1	1	695	0	772.060913562775	0	0	0	0
355	4	2	1	2	2	1	350	0	774.326871395111	0	0	0	0
356	4	2	2	1	1	2	395	0	776.232952594757	0	0	0	0
357	4	1	1	2	1	1	656	0	778.179013729095	0	0	0	0
358	4	1	1	1	2	2	500	0	780.39165019989	0	0	0	0
359	4	1	2	1	1	1	866	0	782.457673788071	0	0	0	0
360	4	2	2	1	2	1	696	0	784.883589744568	0	0	0	0
361	4	1	2	1	1	1	507	0	787.136221408844	0	0	0	0
362	4	1	1	1	1	1	407	0	789.188914775848	0	0	0	0
363	4	1	1	2	1	1	392	0	791.14829826355	0	0	0	0
364	4	2	1	1	2	1	408	0	793.10769033432	0	0	0	0
365	4	1	1	1	1	1	595	0	795.080413341522	0	0	0	0
366	4	2	1	2	2	1	393	0	797.226404666901	0	0	0	0
367	4	2	2	2	2	1	415	0	799.172473192215	0	0	0	0
368	4	1	1	2	1	1	554	0	801.145195245743	0	0	0	0
369	4	2	1	2	1	2	512	0	803.251203298569	0	0	0	0
370	4	2	2	1	2	1	600	0	805.330549240112	0	0	0	0
371	4	2	2	1	2	1	448	0	807.476550579071	0	0	0	0
372	4	2	1	1	2	1	385	0	809.475930213928	0	0	0	0
373	4	2	1	1	2	1	363	0	811.408655643463	0	0	0	0
374	4	1	1	2	1	1	467	0	813.328062772751	0	0	0	0
375	4	2	2	1	2	1	521	0	815.354094266891	0	0	0	0
376	4	1	1	1	1	1	460	0	817.446781396866	0	0	0	0
377	4	1	2	2	1	1	383	0	819.459489822388	0	0	0	0
378	4	2	1	1	2	1	595	0	821.392224311829	0	0	0	0
379	4	1	1	1	1	1	417	0	823.538222789764	0	0	0	0
380	4	1	1	2	1	1	380	0	825.510932683945	0	0	0	0
381	4	1	2	2	1	1	403	0	827.456993341446	0	0	0	0
382	4	1	2	2	1	1	511	0	829.429720640182	0	0	0	0
383	4	1	2	1	1	1	605	0	831.495737791061	0	0	0	0
384	4	1	1	2	1	1	445	0	833.655072212219	0	0	0	0
