Trial	Block	stimside	congruentcondition	colors	respside	accuracy	RT	reward	trialtime	tmstime	query	qresp	qrt
1	1	2	2	1	1	2	473	0	-0.0131235122680664	0	0	0	0
2	1	1	2	2	2	2	953	0	2.01955676078796	0	0	0	0
3	1	2	2	2	1	2	437	0	4.51873755455017	0	0	0	0
4	1	1	2	2	0	99	0	0	6.5014226436615	0	0	0	0
5	1	2	2	1	2	1	655	0	9.08392429351807	0	0	0	0
6	1	1	2	1	1	1	1000	0	11.2998645305634	0	0	0	0
7	1	1	2	1	2	2	659	0	13.8490419387817	0	0	0	0
8	1	1	1	1	0	99	0	0	16.0649864673615	0	0	0	0
9	1	2	2	2	2	1	773	0	18.6308190822601	0	0	0	0
10	1	1	1	2	1	1	632	0	20.9634013175964	0	0	0	0
11	1	1	1	2	1	1	898	0	23.1460282802582	0	0	0	0
12	1	1	2	2	1	1	961	0	25.5952324867249	0	0	0	0
13	1	2	1	1	2	1	461	0	28.111079454422	0	0	0	0
14	1	2	2	2	0	99	0	0	30.1270956993103	0	0	0	0
15	1	2	2	1	1	2	711	0	32.692928314209	0	0	0	0
16	1	1	1	1	0	99	0	0	34.9588575363159	0	0	0	0
17	1	1	2	1	2	2	695	0	37.5413429737091	0	0	0	0
18	1	1	2	1	2	2	493	0	39.7906136512756	0	0	0	0
19	1	1	2	1	2	2	556	0	41.8399622440338	0	0	0	0
20	1	1	1	2	1	1	681	0	43.9559383392334	0	0	0	0
21	1	1	1	1	1	1	863	0	46.1885366439819	0	0	0	0
22	1	2	2	2	2	1	864	0	48.6044216156006	0	0	0	0
23	1	2	2	2	2	1	735	0	51.0203113555908	0	0	0	0
24	1	2	1	1	2	1	485	0	53.3029029369354	0	0	0	0
25	1	2	2	2	1	2	644	0	55.3355708122253	0	0	0	0
26	1	1	1	1	1	1	797	0	57.5348534584045	0	0	0	0
27	1	1	2	1	2	2	432	0	59.8840942382812	0	0	0	0
28	1	2	2	1	0	99	0	0	61.8667788505554	0	0	0	0
29	1	2	1	2	2	1	492	0	64.4326136112213	0	0	0	0
30	1	2	1	2	2	1	874	0	66.4819495677948	0	0	0	0
31	1	1	1	2	1	1	442	0	68.9144923686981	0	0	0	0
32	1	1	2	1	2	2	506	0	70.9138507843018	0	0	0	0
33	1	1	2	2	0	99	0	0	72.9798493385315	0	0	0	0
34	1	2	1	1	2	1	531	0	75.5456805229187	0	0	0	0
35	1	1	2	1	0	99	0	0	77.6283366680145	0	0	0	0
36	1	1	2	2	0	99	0	0	80.1941673755646	0	0	0	0
37	1	1	2	2	2	2	468	0	82.7766723632812	0	0	0	0
38	1	2	2	1	0	99	0	0	84.8093342781067	0	0	0	0
39	1	2	2	2	0	99	0	0	87.3751647472382	0	0	0	0
40	1	1	2	2	2	2	10	0	89.9410016536713	0	0	0	0
41	1	1	1	1	0	99	0	0	91.5071704387665	0	0	0	0
42	1	1	1	2	0	99	0	0	94.0896537303925	0	0	0	0
43	1	2	2	2	2	1	877	0	96.672155380249	0	0	0	0
44	1	1	1	2	0	99	0	0	99.1047058105469	0	0	0	0
45	1	2	2	2	2	1	615	0	101.670531272888	0	0	0	0
46	1	2	1	1	2	1	624	0	103.836488723755	0	0	0	0
47	1	2	1	1	2	1	521	0	106.019126415253	0	0	0	0
48	1	1	1	1	1	1	519	0	108.085111379623	0	0	0	0
49	1	1	1	1	1	1	885	0	110.167771339417	0	0	0	0
50	1	1	2	2	2	2	421	0	112.600323677063	0	0	0	0
51	1	1	1	1	2	2	391	0	114.566355466843	0	0	0	0
52	1	2	2	1	1	2	425	0	116.515716314316	0	0	0	0
53	1	2	1	1	0	99	0	0	118.498399734497	0	0	0	0
54	1	1	2	2	2	2	628	0	121.080893993378	0	0	0	0
55	1	2	1	1	2	1	510	0	123.263521671295	0	0	0	0
56	1	2	1	2	2	1	443	0	125.329516649246	0	0	0	0
57	1	2	1	2	2	1	429	0	127.32887339592	0	0	0	0
58	1	1	2	1	2	2	445	0	129.311564922333	0	0	0	0
59	1	1	2	1	1	1	782	0	131.310917854309	0	0	0	0
60	1	2	1	1	1	2	609	0	133.643484354019	0	0	0	0
61	1	1	1	2	1	1	748	0	135.809453964233	0	0	0	0
62	1	2	1	2	2	1	480	0	138.108704566956	0	0	0	0
63	1	2	2	1	1	2	687	0	140.141374349594	0	0	0	0
64	1	2	1	2	2	1	406	0	142.390646934509	0	0	0	0
65	1	2	2	1	1	2	521	0	144.356686353683	0	0	0	0
66	1	2	2	2	1	2	566	0	146.422671318054	0	0	0	0
67	1	2	1	2	0	99	0	0	148.53864979744	0	0	0	0
68	1	2	1	1	0	99	0	0	151.104486465454	0	0	0	0
69	1	1	2	2	1	1	662	0	153.686982631683	0	0	0	0
70	1	2	2	1	2	1	606	0	155.902938365936	0	0	0	0
71	1	2	2	1	1	2	408	0	158.068898916245	0	0	0	0
72	1	2	2	1	0	99	0	0	160.03492641449	0	0	0	0
73	1	1	1	1	0	99	0	0	162.600764513016	0	0	0	0
74	1	1	1	2	0	99	0	0	165.166602134705	0	0	0	0
75	1	1	2	2	2	2	7	0	167.749095439911	0	0	0	0
76	1	2	2	2	0	99	0	0	169.315255880356	0	0	0	0
77	1	2	2	2	1	2	660	0	171.881084918976	0	0	0	0
78	1	2	1	2	0	99	0	0	174.097036361694	0	0	0	0
79	1	1	1	1	1	1	647	0	176.662858724594	0	0	0	0
80	1	2	1	1	2	1	623	0	178.862145423889	0	0	0	0
81	1	1	1	1	1	1	648	0	181.044777870178	0	0	0	0
82	1	1	1	2	0	99	0	0	183.244058609009	0	0	0	0
83	1	2	1	1	2	1	827	0	185.809904336929	0	0	0	0
84	1	1	1	2	1	1	861	0	188.192455291748	0	0	0	0
85	1	1	1	2	1	1	413	0	190.608342409134	0	0	0	0
86	1	2	1	2	2	1	495	0	192.574370384216	0	0	0	0
87	1	1	1	1	1	1	558	0	194.62370634079	0	0	0	0
88	1	1	1	2	1	1	633	0	196.739684581757	0	0	0	0
89	1	2	1	2	0	99	0	0	198.922316551208	0	0	0	0
90	1	1	2	1	2	2	445	0	201.4881503582	0	0	0	0
91	1	2	2	1	0	99	0	0	203.487501382828	0	0	0	0
92	1	2	1	2	0	99	0	0	206.069994449615	0	0	0	0
93	1	2	1	2	2	1	418	0	208.635832309723	0	0	0	0
94	1	2	1	1	0	99	0	0	210.601854324341	0	0	0	0
95	1	1	2	2	1	1	878	0	213.167689561844	0	0	0	0
96	1	1	2	1	0	99	0	0	215.600235462189	0	0	0	0
97	2	2	1	1	2	1	519	0	282.278609275818	0	0	0	0
98	2	1	2	1	0	99	0	0	284.361266374588	0	0	0	0
99	2	1	2	1	2	2	464	0	286.927093744278	0	0	0	0
100	2	1	2	2	2	2	529	0	288.943112611771	0	0	0	0
101	2	2	1	2	2	1	444	0	291.02577662468	0	0	0	0
102	2	1	2	2	2	2	414	0	293.025126457214	0	0	0	0
103	2	2	2	1	1	2	415	0	294.991142511368	0	0	0	0
104	2	1	2	2	2	2	433	0	296.957172632217	0	0	0	0
105	2	2	1	1	0	99	0	0	298.939869403839	0	0	0	0
106	2	2	2	1	1	2	989	0	301.505706310272	0	0	0	0
107	2	1	1	1	1	1	728	0	304.054876565933	0	0	0	0
108	2	2	1	1	2	1	701	0	306.337475299835	0	0	0	0
109	2	2	2	1	0	99	0	0	308.603406429291	0	0	0	0
110	2	2	2	1	0	99	0	0	311.169239759445	0	0	0	0
111	2	2	1	2	2	1	375	0	313.735065698624	0	0	0	0
112	2	2	2	1	1	2	555	0	315.667784690857	0	0	0	0
113	2	1	2	2	0	99	0	0	317.783763885498	0	0	0	0
114	2	1	1	2	1	1	625	0	320.366248607635	0	0	0	0
115	2	1	2	1	0	99	0	0	322.548879384995	0	0	0	0
116	2	2	1	2	2	1	420	0	325.114719390869	0	0	0	0
117	2	1	1	2	1	1	758	0	327.080750465393	0	0	0	0
118	2	1	2	1	2	2	874	0	329.396667480469	0	0	0	0
119	2	2	1	1	0	99	0	0	331.829200267792	0	0	0	0
120	2	1	1	2	1	1	548	0	334.395032644272	0	0	0	0
121	2	2	1	1	2	1	801	0	336.494363307953	0	0	0	0
122	2	1	1	2	1	1	611	0	338.843593597412	0	0	0	0
123	2	2	2	2	2	1	924	0	341.026223421097	0	0	0	0
124	2	2	2	2	0	99	0	0	343.508747339249	0	0	0	0
125	2	1	1	2	1	1	611	0	346.091249465942	0	0	0	0
126	2	2	1	2	0	99	0	0	348.257204771042	0	0	0	0
127	2	1	1	1	1	1	760	0	350.823051452637	0	0	0	0
128	2	1	2	1	0	99	0	0	353.138964414597	0	0	0	0
129	2	2	1	1	2	1	421	0	355.721458435059	0	0	0	0
130	2	2	2	1	0	99	0	0	357.704151391983	0	0	0	0
131	2	1	2	1	0	99	0	0	360.269975662231	0	0	0	0
132	2	2	2	2	0	99	0	0	362.835822343826	0	0	0	0
133	2	1	1	2	0	99	0	0	365.401655435562	0	0	0	0
134	2	2	1	1	0	99	0	0	367.967487812042	0	0	0	0
135	2	2	2	1	0	99	0	0	370.549986362457	0	0	0	0
136	2	1	2	1	0	99	0	0	373.132472753525	0	0	0	0
137	2	1	2	2	0	99	0	0	375.698314428329	0	0	0	0
138	2	2	2	2	0	99	0	0	378.264152288437	0	0	0	0
139	2	2	2	2	0	99	0	0	380.829990386963	0	0	0	0
140	2	1	1	1	1	1	635	0	383.412487506866	0	0	0	0
141	2	2	1	2	2	1	852	0	385.611767292023	0	0	0	0
142	2	2	1	1	2	1	756	0	388.010987281799	0	0	0	0
143	2	2	2	2	0	99	0	0	390.326901674271	0	0	0	0
144	2	1	2	2	2	2	563	0	392.892733812332	0	0	0	0
145	2	1	2	1	0	99	0	0	395.02538728714	0	0	0	0
146	2	1	1	1	0	99	0	0	397.607886314392	0	0	0	0
147	2	1	1	1	1	1	465	0	400.190381526947	0	0	0	0
148	2	2	2	2	2	1	993	0	402.20639538765	0	0	0	0
149	2	1	2	2	1	1	732	0	404.755567312241	0	0	0	0
150	2	1	1	2	0	99	0	0	407.038153648376	0	0	0	0
151	2	2	2	2	0	99	0	0	409.620643377304	0	0	0	0
152	2	2	2	2	0	99	0	0	412.203149318695	0	0	0	0
153	2	2	2	2	0	99	0	0	414.768982887268	0	0	0	0
154	2	1	1	2	0	99	0	0	417.334816455841	0	0	0	0
155	2	1	1	2	1	1	723	0	419.900658369064	0	0	0	0
156	2	2	2	1	0	99	0	0	422.183243274689	0	0	0	0
157	2	1	1	1	1	1	610	0	424.765748262405	0	0	0	0
158	2	2	1	1	2	1	796	0	426.931702136993	0	0	0	0
159	2	1	2	1	0	99	0	0	429.280940294266	0	0	0	0
160	2	1	2	2	0	99	0	0	431.84677529335	0	0	0	0
161	2	1	2	1	2	2	595	0	434.412617444992	0	0	0	0
162	2	2	1	2	0	99	0	0	436.561918497086	0	0	0	0
163	2	1	2	1	1	1	824	0	439.127759456635	0	0	0	0
164	2	1	1	2	0	99	0	0	441.510319948196	0	0	0	0
165	2	2	1	1	0	99	0	0	444.076154470444	0	0	0	0
166	2	2	1	2	2	1	670	0	446.641985416412	0	0	0	0
167	2	1	2	1	2	2	437	0	448.874596357346	0	0	0	0
168	2	2	1	2	0	99	0	0	450.873949289322	0	0	0	0
169	2	1	1	1	1	1	416	0	453.439782619476	0	0	0	0
170	2	2	2	1	0	99	0	0	455.405806541443	0	0	0	0
171	2	2	1	1	2	1	604	0	457.971640348434	0	0	0	0
172	2	1	2	2	0	99	0	0	460.120950460434	0	0	0	0
173	2	1	1	2	0	99	0	0	462.703448295593	0	0	0	0
174	2	2	2	1	0	99	0	0	465.285945415497	0	0	0	0
175	2	2	1	2	2	1	452	0	467.851770401001	0	0	0	0
176	2	2	2	2	0	99	0	0	469.851130962372	0	0	0	0
177	2	2	1	2	0	99	0	0	472.416966438293	0	0	0	0
178	2	2	1	2	0	99	0	0	474.999463319778	0	0	0	0
179	2	2	2	2	1	2	578	0	477.581961393356	0	0	0	0
180	2	2	2	1	0	99	0	0	479.714602947235	0	0	0	0
181	2	2	1	1	2	1	408	0	482.280431270599	0	0	0	0
182	2	1	1	1	0	99	0	0	484.24646282196	0	0	0	0
183	2	1	1	2	1	1	804	0	486.812297582626	0	0	0	0
184	2	1	1	1	0	99	0	0	489.178201436996	0	0	0	0
185	2	2	2	1	2	1	783	0	491.760696411133	0	0	0	0
186	2	1	1	1	0	99	0	0	494.093269348145	0	0	0	0
187	2	1	2	2	0	99	0	0	496.659099817276	0	0	0	0
188	2	1	1	1	0	99	0	0	499.224942684174	0	0	0	0
189	2	1	2	2	2	2	400	0	501.807436704636	0	0	0	0
190	2	1	2	2	0	99	0	0	503.77346944809	0	0	0	0
191	2	1	1	1	0	99	0	0	506.339293718338	0	0	0	0
192	2	2	1	2	0	99	0	0	508.905140638351	0	0	0	0
193	3	2	2	2	1	2	498	0	639.296220541	0	0	0	0
194	3	1	1	2	1	1	736	0	641.3455555439	0	0	0	0
195	3	2	2	2	2	1	741	0	643.644807815552	0	0	0	0
196	3	2	1	2	2	1	538	0	645.944061517715	0	0	0	0
197	3	2	2	2	0	99	0	0	648.026716947556	0	0	0	0
198	3	2	1	2	2	1	513	0	650.592559337616	0	0	0	0
199	3	2	2	2	2	1	735	0	652.658559322357	0	0	0	0
200	3	2	1	2	2	1	532	0	654.957801580429	0	0	0	0
201	3	2	2	1	0	99	0	0	657.057124376297	0	0	0	0
202	3	2	1	1	2	1	378	0	659.62296962738	0	0	0	0
203	3	1	1	2	1	1	430	0	661.555670261383	0	0	0	0
204	3	2	1	1	2	1	399	0	663.5383644104	0	0	0	0
205	3	2	1	2	2	1	402	0	665.504386663437	0	0	0	0
206	3	2	2	1	1	2	803	0	667.470415592194	0	0	0	0
207	3	2	1	1	2	1	405	0	669.836318492889	0	0	0	0
208	3	2	2	1	1	2	824	0	671.802357435226	0	0	0	0
209	3	1	2	1	2	2	553	0	674.184906721115	0	0	0	0
210	3	2	1	1	0	99	0	0	676.28422999382	0	0	0	0
211	3	1	1	1	1	1	608	0	678.866726398468	0	0	0	0
212	3	2	2	2	1	2	809	0	681.032695770264	0	0	0	0
213	3	2	2	1	0	99	0	0	683.398591279984	0	0	0	0
214	3	1	1	2	1	1	805	0	685.964425563812	0	0	0	0
215	3	2	1	2	2	1	535	0	688.330332279205	0	0	0	0
216	3	2	2	2	2	1	709	0	690.429648637772	0	0	0	0
217	3	1	2	1	0	99	0	0	692.695581674576	0	0	0	0
218	3	2	2	1	2	1	693	0	695.261420488358	0	0	0	0
219	3	1	1	2	1	1	795	0	697.510685682297	0	0	0	0
220	3	2	2	2	0	99	0	0	699.859925270081	0	0	0	0
221	3	1	2	2	1	1	840	0	702.425754547119	0	0	0	0
222	3	1	2	1	0	99	0	0	704.824984550476	0	0	0	0
223	3	2	1	2	2	1	947	0	707.407474517822	0	0	0	0
224	3	1	2	2	0	99	0	0	709.906666517258	0	0	0	0
225	3	1	1	2	1	1	473	0	712.472511529922	0	0	0	0
226	3	2	2	2	2	1	794	0	714.505174636841	0	0	0	0
227	3	1	1	1	1	1	732	0	716.854420661926	0	0	0	0
228	3	1	1	1	0	99	0	0	719.137019395828	0	0	0	0
229	3	2	2	1	0	99	0	0	721.702855348587	0	0	0	0
230	3	1	1	2	1	1	454	0	724.268687486649	0	0	0	0
231	3	1	1	2	1	1	582	0	726.28470158577	0	0	0	0
232	3	2	1	1	2	1	657	0	728.417338371277	0	0	0	0
233	3	2	2	2	0	99	0	0	730.633287906647	0	0	0	0
234	3	2	2	1	1	2	388	0	733.199128389359	0	0	0	0
235	3	2	1	1	0	99	0	0	735.131829500198	0	0	0	0
236	3	2	1	1	0	99	0	0	737.697661399841	0	0	0	0
237	3	1	1	1	2	2	217	0	740.263502597809	0	0	0	0
238	3	1	2	1	1	1	869	0	742.04626250267	0	0	0	0
239	3	2	2	1	2	1	964	0	744.478804349899	0	0	0	0
240	3	2	2	2	2	1	448	0	746.994660377502	0	0	0	0
241	3	2	1	2	2	1	528	0	748.994014263153	0	0	0	0
242	3	2	1	1	2	1	510	0	751.076667308807	0	0	0	0
243	3	2	2	2	2	1	524	0	753.1426653862	0	0	0	0
244	3	1	1	1	0	99	0	0	755.225316524506	0	0	0	0
245	3	1	2	2	2	2	532	0	757.791163444519	0	0	0	0
246	3	1	1	1	0	99	0	0	759.87380862236	0	0	0	0
247	3	1	2	1	2	2	443	0	762.439657449722	0	0	0	0
248	3	2	1	1	0	99	0	0	764.439000844955	0	0	0	0
249	3	1	2	1	0	99	0	0	767.021505355835	0	0	0	0
250	3	2	2	1	0	99	0	0	769.587329626083	0	0	0	0
251	3	2	1	2	0	99	0	0	772.153175354004	0	0	0	0
252	3	1	2	1	2	2	484	0	774.719010829926	0	0	0	0
253	3	2	1	2	0	99	0	0	776.751683950424	0	0	0	0
254	3	1	2	1	2	2	493	0	779.31751537323	0	0	0	0
255	3	2	1	2	0	99	0	0	781.383517742157	0	0	0	0
256	3	1	2	1	1	1	597	0	783.966011285782	0	0	0	0
257	3	1	2	2	0	99	0	0	786.115320444107	0	0	0	0
258	3	1	2	1	2	2	378	0	788.681157588959	0	0	0	0
259	3	1	1	1	1	1	461	0	790.61386346817	0	0	0	0
260	3	2	1	1	2	1	478	0	792.629865646362	0	0	0	0
261	3	1	1	1	1	1	765	0	794.662538528442	0	0	0	0
262	3	1	1	2	1	1	480	0	796.978454828262	0	0	0	0
263	3	1	1	2	1	1	560	0	799.011143445969	0	0	0	0
264	3	1	2	1	2	2	412	0	801.127123355865	0	0	0	0
265	3	1	1	2	1	1	910	0	803.093152284622	0	0	0	0
266	3	1	1	1	0	99	0	0	805.559009552002	0	0	0	0
267	3	1	2	2	2	2	454	0	808.124855279922	0	0	0	0
268	3	1	1	2	0	99	0	0	810.124200582504	0	0	0	0
269	3	2	2	1	1	2	897	0	812.690036296844	0	0	0	0
270	3	1	2	2	0	99	0	0	815.139243602753	0	0	0	0
271	3	1	1	1	2	2	521	0	817.721740245819	0	0	0	0
272	3	1	1	1	1	1	839	0	819.804401874542	0	0	0	0
273	3	2	1	2	1	2	167	0	822.203630447388	0	0	0	0
274	3	2	2	1	0	99	0	0	823.919728517532	0	0	0	0
275	3	2	1	1	2	1	11	0	826.485577344894	0	0	0	0
276	3	2	1	1	2	1	544	0	828.051727294922	0	0	0	0
277	3	2	2	1	2	1	636	0	830.151048660278	0	0	0	0
278	3	1	2	2	1	1	870	0	832.333676338196	0	0	0	0
279	3	1	2	2	1	1	694	0	834.74955368042	0	0	0	0
280	3	1	2	2	1	1	685	0	836.998837471008	0	0	0	0
281	3	2	1	2	0	99	0	0	839.23144698143	0	0	0	0
282	3	2	2	2	2	1	798	0	841.813940286636	0	0	0	0
283	3	1	2	1	0	99	0	0	844.179844379425	0	0	0	0
284	3	1	2	2	2	2	474	0	846.745680332184	0	0	0	0
285	3	1	2	2	2	2	441	0	848.778353691101	0	0	0	0
286	3	1	1	2	0	99	0	0	850.777707338333	0	0	0	0
287	3	1	2	2	2	2	468	0	853.360200643539	0	0	0	0
288	3	1	1	1	0	99	0	0	855.392870664597	0	0	0	0
289	4	1	2	2	0	99	0	0	884.716709375381	0	0	0	0
290	4	1	1	1	0	99	0	0	887.282537460327	0	0	0	0
291	4	2	2	1	1	2	444	0	889.848383426666	0	0	0	0
292	4	1	1	1	1	1	508	0	891.847730398178	0	0	0	0
293	4	2	2	2	2	1	970	0	893.913722991943	0	0	0	0
294	4	1	2	2	1	1	950	0	896.446244478226	0	0	0	0
295	4	2	1	1	0	99	0	0	898.945425748825	0	0	0	0
296	4	1	2	1	0	99	0	0	901.51127243042	0	0	0	0
297	4	1	1	2	1	1	519	0	904.077102422714	0	0	0	0
298	4	2	2	1	2	1	836	0	906.159762859344	0	0	0	0
299	4	2	2	1	1	2	421	0	908.558991909027	0	0	0	0
300	4	2	2	1	0	99	0	0	910.525015354156	0	0	0	0
301	4	1	1	2	0	99	0	0	913.090850353241	0	0	0	0
302	4	2	1	1	0	99	0	0	915.656693458557	0	0	0	0
303	4	1	1	2	2	2	470	0	918.239184617996	0	0	0	0
304	4	1	1	2	0	99	0	0	920.27185177803	0	0	0	0
305	4	1	2	1	0	99	0	0	922.837687969208	0	0	0	0
306	4	1	1	1	0	99	0	0	925.403526544571	0	0	0	0
307	4	2	1	1	2	1	947	0	927.969370365143	0	0	0	0
308	4	1	2	2	1	1	976	0	930.468561410904	0	0	0	0
309	4	1	1	1	0	99	0	0	933.001074314117	0	0	0	0
310	4	1	2	2	0	99	0	0	935.566907405853	0	0	0	0
311	4	2	2	2	0	99	0	0	938.132739543915	0	0	0	0
312	4	2	1	1	2	1	474	0	940.698571443558	0	0	0	0
313	4	2	1	2	0	99	0	0	942.731245279312	0	0	0	0
314	4	2	1	1	0	99	0	0	945.31374168396	0	0	0	0
315	4	1	2	1	1	1	717	0	947.879579544067	0	0	0	0
316	4	2	2	1	0	99	0	0	950.162184476852	0	0	0	0
317	4	2	2	2	2	1	861	0	952.728008747101	0	0	0	0
318	4	2	1	2	0	99	0	0	955.14389538765	0	0	0	0
319	4	2	1	2	2	1	471	0	957.709737300873	0	0	0	0
320	4	1	1	1	1	1	646	0	959.742413520813	0	0	0	0
321	4	2	1	1	0	99	0	0	961.941699266434	0	0	0	0
322	4	1	2	2	0	99	0	0	964.50753569603	0	0	0	0
323	4	1	2	2	2	2	547	0	967.073368310928	0	0	0	0
324	4	2	2	1	0	99	0	0	969.172689437866	0	0	0	0
325	4	1	1	2	1	1	939	0	971.75518155098	0	0	0	0
326	4	1	1	2	0	99	0	0	974.254368543625	0	0	0	0
327	4	1	1	2	1	1	560	0	976.820207357407	0	0	0	0
328	4	2	1	1	0	99	0	0	978.936198949814	0	0	0	0
329	4	2	1	1	0	99	0	0	981.502031326294	0	0	0	0
330	4	1	2	2	0	99	0	0	984.06786441803	0	0	0	0
331	4	2	2	2	0	99	0	0	986.650361537933	0	0	0	0
332	4	1	1	1	1	1	869	0	989.232859373093	0	0	0	0
333	4	1	1	2	0	99	0	0	991.648741483688	0	0	0	0
334	4	2	2	1	2	1	878	0	994.21456861496	0	0	0	0
335	4	2	2	2	2	1	734	0	996.647119522095	0	0	0	0
336	4	1	2	1	2	2	547	0	998.946370601654	0	0	0	0
337	4	2	1	1	0	99	0	0	1001.04569840431	0	0	0	0
338	4	2	1	2	0	99	0	0	1003.61153364182	0	0	0	0
339	4	2	1	2	0	99	0	0	1006.17737436295	0	0	0	0
340	4	2	1	1	0	99	0	0	1008.74320840836	0	0	0	0
341	4	1	2	2	2	2	745	0	1011.30904054642	0	0	0	0
342	4	1	2	1	1	1	957	0	1013.6082918644	0	0	0	0
343	4	2	1	2	2	1	841	0	1016.12414836884	0	0	0	0
344	4	2	2	2	0	99	0	0	1018.52336359024	0	0	0	0
345	4	2	2	2	1	2	580	0	1021.0892124176	0	0	0	0
346	4	1	2	2	2	2	896	0	1023.22185540199	0	0	0	0
347	4	1	1	1	0	99	0	0	1025.68772053719	0	0	0	0
348	4	1	2	2	1	1	919	0	1028.27021741867	0	0	0	0
349	4	2	2	2	0	99	0	0	1030.73608446121	0	0	0	0
350	4	2	2	1	1	2	431	0	1033.30192232132	0	0	0	0
351	4	1	1	1	0	99	0	0	1035.28461050987	0	0	0	0
352	4	2	2	1	1	2	523	0	1037.86711144447	0	0	0	0
353	4	2	1	2	0	99	0	0	1039.94976329803	0	0	0	0
354	4	2	2	1	2	1	993	0	1042.53226041794	0	0	0	0
355	4	1	2	1	0	99	0	0	1045.08143830299	0	0	0	0
356	4	2	1	2	0	99	0	0	1047.64727878571	0	0	0	0
357	4	1	1	2	0	99	0	0	1050.21310830116	0	0	0	0
358	4	1	2	1	0	99	0	0	1052.79560828209	0	0	0	0
359	4	1	1	1	0	99	0	0	1055.36144828796	0	0	0	0
360	4	2	1	1	0	99	0	0	1057.92727041245	0	0	0	0
361	4	2	1	1	2	1	552	0	1060.49311542511	0	0	0	0
362	4	2	2	2	2	1	693	0	1062.59243345261	0	0	0	0
363	4	2	2	2	0	99	0	0	1064.84171152115	0	0	0	0
364	4	1	2	1	0	99	0	0	1067.42419862747	0	0	0	0
365	4	2	1	2	0	99	0	0	1069.99003052711	0	0	0	0
366	4	1	1	1	2	2	474	0	1072.55587387085	0	0	0	0
367	4	2	1	2	0	99	0	0	1074.58855128288	0	0	0	0
368	4	1	2	1	1	1	740	0	1077.15438866615	0	0	0	0
369	4	1	1	2	1	1	985	0	1079.45364546776	0	0	0	0
370	4	1	1	2	1	1	532	0	1081.98615145683	0	0	0	0
371	4	1	1	2	1	1	609	0	1084.0688123703	0	0	0	0
372	4	1	2	2	1	1	859	0	1086.23478341103	0	0	0	0
373	4	1	2	1	1	1	556	0	1088.65065360069	0	0	0	0
374	4	1	2	1	0	99	0	0	1090.76665043831	0	0	0	0
375	4	2	1	2	2	1	704	0	1093.34914326668	0	0	0	0
376	4	1	2	1	2	2	471	0	1095.61507749557	0	0	0	0
377	4	1	2	2	2	2	455	0	1097.63107967377	0	0	0	0
378	4	2	2	2	0	99	0	0	1099.6470925808	0	0	0	0
379	4	1	1	1	0	99	0	0	1102.21294283867	0	0	0	0
380	4	2	1	2	2	1	571	0	1104.79543757439	0	0	0	0
381	4	1	1	1	0	99	0	0	1106.92807531357	0	0	0	0
382	4	2	2	1	0	99	0	0	1109.49391841888	0	0	0	0
383	4	2	2	1	0	99	0	0	1112.05975389481	0	0	0	0
384	4	2	2	2	2	1	724	0	1114.62557554245	0	0	0	0
