Trial	Block	stimside	congruentcondition	colors	respside	accuracy	RT	reward	trialtime	tmstime	query	qresp	qrt
1	1	1	1	1	1	1	511	0	-0.0138285160064697	0	0	0	0
2	1	2	2	1	2	1	628	0	2.052161693573	0	0	0	0
3	1	2	2	2	2	1	566	0	4.23478865623474	0	0	0	0
4	1	2	1	1	2	1	578	0	6.35076856613159	0	0	0	0
5	1	1	1	2	1	1	445	0	8.48341369628906	0	0	0	0
6	1	1	2	2	1	1	438	0	10.4827692508698	0	0	0	0
7	1	1	1	1	1	1	847	0	12.4654576778412	0	0	0	0
8	1	1	2	1	1	1	600	0	14.8646893501282	0	0	0	0
9	1	1	2	2	1	1	579	0	17.0139904022217	0	0	0	0
10	1	2	2	1	2	1	558	0	19.1466376781464	0	0	0	0
11	1	2	2	1	2	1	490	0	21.2626185417175	0	0	0	0
12	1	1	1	2	1	1	537	0	23.3119583129883	0	0	0	0
13	1	2	1	2	2	1	646	0	25.3946163654327	0	0	0	0
14	1	1	1	2	1	1	423	0	27.5938966274261	0	0	0	0
15	1	1	2	2	1	1	521	0	29.5599353313446	0	0	0	0
16	1	2	1	2	2	1	583	0	31.6425795555115	0	0	0	0
17	1	1	1	2	1	1	402	0	33.7752304077148	0	0	0	0
18	1	1	1	1	1	1	436	0	35.7245953083038	0	0	0	0
19	1	1	2	1	1	1	629	0	37.7072954177856	0	0	0	0
20	1	2	1	1	2	1	415	0	39.8899097442627	0	0	0	0
21	1	2	2	1	2	1	609	0	41.8559494018555	0	0	0	0
22	1	2	1	2	2	1	443	0	44.0219123363495	0	0	0	0
23	1	1	1	2	1	1	947	0	46.0212619304657	0	0	0	0
24	1	2	2	1	2	1	560	0	48.5204524993896	0	0	0	0
25	1	2	2	2	2	1	604	0	50.6364414691925	0	0	0	0
26	1	1	2	1	1	1	519	0	52.7857413291931	0	0	0	0
27	1	1	1	2	1	1	396	0	54.8684053421021	0	0	0	0
28	1	2	1	1	2	1	495	0	56.8177728652954	0	0	0	0
29	1	1	2	2	1	1	544	0	58.8671026229858	0	0	0	0
30	1	1	1	2	1	1	450	0	60.9664187431335	0	0	0	0
31	1	2	2	1	2	1	627	0	62.9657735824585	0	0	0	0
32	1	2	1	1	2	1	413	0	65.148410320282	0	0	0	0
33	1	2	2	1	2	1	463	0	67.1144347190857	0	0	0	0
34	1	1	1	2	1	1	487	0	69.1304397583008	0	0	0	0
35	1	2	1	1	2	1	462	0	71.1631252765656	0	0	0	0
36	1	2	1	1	2	1	398	0	73.1791424751282	0	0	0	0
37	1	1	2	2	1	1	569	0	75.1285035610199	0	0	0	0
38	1	1	2	2	1	1	468	0	77.2611436843872	0	0	0	0
39	1	1	2	2	1	1	428	0	79.2771644592285	0	0	0	0
40	1	2	1	1	2	1	437	0	81.2598466873169	0	0	0	0
41	1	2	1	1	2	1	327	0	83.2425405979156	0	0	0	0
42	1	1	1	2	1	1	516	0	85.1252658367157	0	0	0	0
43	1	2	1	2	2	1	618	0	87.1912627220154	0	0	0	0
44	1	1	2	1	1	1	723	0	89.3738985061646	0	0	0	0
45	1	2	2	2	2	1	689	0	91.6564824581146	0	0	0	0
46	1	2	2	2	2	1	616	0	93.889098405838	0	0	0	0
47	1	1	2	2	1	1	563	0	96.0550684928894	0	0	0	0
48	1	1	1	1	2	2	583	0	98.1710503101349	0	0	0	0
49	1	1	2	2	1	1	874	0	100.303682565689	0	0	0	0
50	1	2	2	2	2	1	618	0	102.736226320267	0	0	0	0
51	1	2	2	2	2	1	700	0	104.90219950676	0	0	0	0
52	1	2	2	1	2	1	522	0	107.151474475861	0	0	0	0
53	1	1	2	2	1	1	664	0	109.217466831207	0	0	0	0
54	1	2	2	2	2	1	680	0	111.433413743973	0	0	0	0
55	1	2	1	2	2	1	807	0	113.66602396965	0	0	0	0
56	1	2	1	1	2	1	545	0	116.031922340393	0	0	0	0
57	1	1	2	1	1	1	510	0	118.13124370575	0	0	0	0
58	1	2	1	2	2	1	516	0	120.197246551514	0	0	0	0
59	1	2	2	1	2	1	763	0	122.263250589371	0	0	0	0
60	1	2	2	1	2	1	503	0	124.579166889191	0	0	0	0
61	1	1	2	1	1	1	733	0	126.628503322601	0	0	0	0
62	1	2	2	2	2	1	562	0	128.911089420319	0	0	0	0
63	1	2	1	1	2	1	679	0	131.027074337006	0	0	0	0
64	1	1	2	1	1	1	766	0	133.25968837738	0	0	0	0
65	1	2	1	1	2	1	498	0	135.575604438782	0	0	0	0
66	1	2	1	1	2	1	737	0	137.624931573868	0	0	0	0
67	1	1	1	1	1	1	462	0	139.907533884048	0	0	0	0
68	1	2	1	2	2	1	670	0	141.923551559448	0	0	0	0
69	1	1	2	1	2	2	502	0	144.139523506165	0	0	0	0
70	1	2	2	1	2	1	821	0	146.205527305603	0	0	0	0
71	1	1	1	1	1	1	630	0	148.588094949722	0	0	0	0
72	1	1	1	2	1	1	640	0	150.770721673965	0	0	0	0
73	1	2	1	2	2	1	721	0	152.970027923584	0	0	0	0
74	1	1	1	1	1	1	686	0	155.235959529877	0	0	0	0
75	1	1	2	1	1	1	717	0	157.468581676483	0	0	0	0
76	1	2	1	2	2	1	603	0	159.75118970871	0	0	0	0
77	1	1	2	1	1	1	821	0	161.91716337204	0	0	0	0
78	1	2	2	1	2	1	672	0	164.283066987991	0	0	0	0
79	1	1	2	1	1	1	575	0	166.499036312103	0	0	0	0
80	1	1	2	2	1	1	562	0	168.631682395935	0	0	0	0
81	1	1	1	1	1	1	766	0	170.747663736343	0	0	0	0
82	1	2	1	2	2	1	594	0	173.08025932312	0	0	0	0
83	1	1	1	1	1	1	516	0	175.229561567307	0	0	0	0
84	1	2	2	2	2	1	691	0	177.295578479767	0	0	0	0
85	1	1	1	2	1	1	833	0	179.544851303101	0	0	0	0
86	1	2	2	2	2	1	635	0	181.927430391312	0	0	0	0
87	1	1	1	1	1	1	595	0	184.126716375351	0	0	0	0
88	1	1	2	1	1	1	646	0	186.276028633118	0	0	0	0
89	1	1	2	2	1	1	703	0	188.475329637527	0	0	0	0
90	1	2	1	2	2	1	581	0	190.724601745605	0	0	0	0
91	1	2	2	2	2	1	553	0	192.857265472412	0	0	0	0
92	1	1	1	2	1	1	629	0	194.973252773285	0	0	0	0
93	1	1	1	1	1	1	558	0	197.155873775482	0	0	0	0
94	1	2	2	2	2	1	547	0	199.271863698959	0	0	0	0
95	1	2	1	2	2	1	495	0	201.371190547943	0	0	0	0
96	1	1	1	1	1	1	567	0	203.420547485352	0	0	0	0
97	2	2	1	1	0	99	0	0	215.599976301193	0	0	0	0
98	2	1	2	2	1	1	756	0	218.182484388351	0	0	0	0
99	2	2	1	1	2	1	472	0	220.498403310776	0	0	0	0
100	2	1	2	1	1	1	633	0	222.514420509338	0	0	0	0
101	2	2	2	1	2	1	770	0	224.697066307068	0	0	0	0
102	2	1	2	1	1	1	759	0	227.012982368469	0	0	0	0
103	2	1	2	2	1	1	658	0	229.328909635544	0	0	0	0
104	2	2	1	2	2	1	674	0	231.544869422913	0	0	0	0
105	2	2	2	2	2	1	633	0	233.77748632431	0	0	0	0
106	2	1	2	1	1	1	539	0	235.960113525391	0	0	0	0
107	2	2	1	1	2	1	495	0	238.059445619583	0	0	0	0
108	2	1	2	2	1	1	590	0	240.108780622482	0	0	0	0
109	2	2	2	2	2	1	625	0	242.25809264183	0	0	0	0
110	2	1	2	2	1	1	562	0	244.440729379654	0	0	0	0
111	2	2	1	2	2	1	814	0	246.556718111038	0	0	0	0
112	2	2	2	1	2	1	505	0	248.922632455826	0	0	0	0
113	2	2	2	1	2	1	583	0	250.971974372864	0	0	0	0
114	2	1	1	1	1	1	634	0	253.104627370834	0	0	0	0
115	2	1	1	2	1	1	516	0	255.287261486053	0	0	0	0
116	2	2	2	2	2	1	698	0	257.353260278702	0	0	0	0
117	2	1	1	1	1	1	520	0	259.602535486221	0	0	0	0
118	2	2	1	2	2	1	694	0	261.668538570404	0	0	0	0
119	2	1	1	1	1	1	549	0	263.917815685272	0	0	0	0
120	2	2	1	1	2	1	445	0	266.017156362534	0	0	0	0
121	2	2	2	2	2	1	634	0	268.016510725021	0	0	0	0
122	2	2	2	2	2	1	588	0	270.199148416519	0	0	0	0
123	2	2	2	1	2	1	520	0	272.331787586212	0	0	0	0
124	2	1	2	2	1	1	517	0	274.397791624069	0	0	0	0
125	2	2	2	2	2	1	635	0	276.463805437088	0	0	0	0
126	2	2	2	1	2	1	421	0	278.64643740654	0	0	0	0
127	2	2	1	2	2	1	599	0	280.612470388412	0	0	0	0
128	2	1	2	1	1	1	489	0	282.761783599854	0	0	0	0
129	2	2	2	1	2	1	513	0	284.794464349747	0	0	0	0
130	2	2	1	1	2	1	527	0	286.86047244072	0	0	0	0
131	2	2	1	2	2	1	484	0	288.943138360977	0	0	0	0
132	2	2	2	2	2	1	596	0	290.975818395615	0	0	0	0
133	2	2	1	1	2	1	535	0	293.125126361847	0	0	0	0
134	2	1	1	2	1	1	571	0	295.207788705826	0	0	0	0
135	2	1	2	2	1	1	503	0	297.340438127518	0	0	0	0
136	2	1	1	2	1	1	526	0	299.406433582306	0	0	0	0
137	2	2	2	2	2	1	474	0	301.489101648331	0	0	0	0
138	2	1	2	2	1	1	676	0	303.521790742874	0	0	0	0
139	2	1	2	1	1	1	513	0	305.754408359528	0	0	0	0
140	2	2	2	2	2	1	511	0	307.820402383804	0	0	0	0
141	2	1	1	1	1	1	477	0	309.886417865753	0	0	0	0
142	2	1	2	1	2	2	412	0	311.919093370438	0	0	0	0
143	2	1	1	1	1	1	624	0	313.885123729706	0	0	0	0
144	2	2	2	1	2	1	560	0	316.067754507065	0	0	0	0
145	2	1	1	1	1	1	925	0	318.183755397797	0	0	0	0
146	2	2	1	1	2	1	642	0	320.666283369064	0	0	0	0
147	2	2	1	2	2	1	642	0	322.865572690964	0	0	0	0
148	2	1	1	2	1	1	627	0	325.064880371094	0	0	0	0
149	2	2	2	2	2	1	556	0	327.247507572174	0	0	0	0
150	2	1	1	1	1	1	513	0	329.346839666367	0	0	0	0
151	2	1	2	2	1	1	735	0	331.412843465805	0	0	0	0
152	2	1	2	1	1	1	668	0	333.712103366852	0	0	0	0
153	2	2	2	2	2	1	700	0	335.928051710129	0	0	0	0
154	2	1	2	2	1	1	738	0	338.177328586578	0	0	0	0
155	2	2	1	1	2	1	856	0	340.476598501205	0	0	0	0
156	2	1	1	1	1	1	600	0	342.892478704453	0	0	0	0
157	2	2	1	2	2	1	530	0	345.041788578033	0	0	0	0
158	2	1	1	1	1	1	608	0	347.124452590942	0	0	0	0
159	2	1	1	2	1	1	514	0	349.29043841362	0	0	0	0
160	2	1	1	2	1	1	455	0	351.356426954269	0	0	0	0
161	2	2	1	2	2	1	416	0	353.355787992477	0	0	0	0
162	2	1	1	2	1	1	562	0	355.321828603745	0	0	0	0
163	2	2	2	1	2	1	646	0	357.437817573547	0	0	0	0
164	2	2	1	1	2	1	447	0	359.637115001678	0	0	0	0
165	2	1	2	2	1	1	600	0	361.636459827423	0	0	0	0
166	2	2	1	2	2	1	650	0	363.78578042984	0	0	0	0
167	2	1	2	2	1	1	899	0	365.985066652298	0	0	0	0
168	2	2	1	2	2	1	610	0	368.434280633926	0	0	0	0
169	2	1	1	2	1	1	428	0	370.600263357162	0	0	0	0
170	2	2	1	2	2	1	461	0	372.582953691483	0	0	0	0
171	2	2	1	2	2	1	645	0	374.59897851944	0	0	0	0
172	2	2	1	1	2	1	678	0	376.798258066177	0	0	0	0
173	2	1	2	1	1	1	622	0	379.030882835388	0	0	0	0
174	2	1	1	1	1	1	527	0	381.213517427444	0	0	0	0
175	2	1	1	2	1	1	452	0	383.296170711517	0	0	0	0
176	2	1	2	1	1	1	789	0	385.295542478561	0	0	0	0
177	2	2	2	1	2	1	528	0	387.628117799759	0	0	0	0
178	2	1	1	2	1	1	718	0	389.710790872574	0	0	0	0
179	2	1	2	2	1	1	443	0	391.993378639221	0	0	0	0
180	2	1	2	1	1	1	733	0	393.992739677429	0	0	0	0
181	2	1	2	1	1	1	513	0	396.275335550308	0	0	0	0
182	2	1	1	2	1	1	551	0	398.34134554863	0	0	0	0
183	2	2	2	2	2	1	660	0	400.440668582916	0	0	0	0
184	2	2	2	1	2	1	429	0	402.656618356705	0	0	0	0
185	2	2	2	1	2	1	486	0	404.639327287674	0	0	0	0
186	2	2	2	1	2	1	516	0	406.688666343689	0	0	0	0
187	2	1	1	1	1	1	730	0	408.754661083221	0	0	0	0
188	2	1	1	2	1	1	647	0	411.037270307541	0	0	0	0
189	2	2	1	1	2	1	528	0	413.236564397812	0	0	0	0
190	2	2	1	1	2	1	429	0	415.319218635559	0	0	0	0
191	2	1	2	1	1	1	599	0	417.301913261414	0	0	0	0
192	2	1	1	1	1	1	577	0	419.451233386993	0	0	0	0
193	3	1	2	1	2	2	621	0	427.232063293457	0	0	0	0
194	3	2	1	1	2	1	911	0	429.39803647995	0	0	0	0
195	3	2	2	1	2	1	765	0	431.863912343979	0	0	0	0
196	3	2	1	1	2	1	610	0	434.17982172966	0	0	0	0
197	3	2	2	2	2	1	795	0	436.345804691315	0	0	0	0
198	3	2	1	1	2	1	494	0	438.695050477982	0	0	0	0
199	3	1	1	2	1	1	452	0	440.744391441345	0	0	0	0
200	3	1	2	2	1	1	638	0	442.74373459816	0	0	0	0
201	3	1	1	2	1	1	590	0	444.943033456802	0	0	0	0
202	3	1	1	1	1	1	585	0	447.092343330383	0	0	0	0
203	3	1	1	2	1	1	548	0	449.224998474121	0	0	0	0
204	3	1	2	1	1	1	665	0	451.32431268692	0	0	0	0
205	3	2	2	1	2	1	561	0	453.540277957916	0	0	0	0
206	3	1	2	1	1	1	812	0	455.672918319702	0	0	0	0
207	3	1	1	2	1	1	662	0	458.038831472397	0	0	0	0
208	3	2	1	2	2	1	606	0	460.254786968231	0	0	0	0
209	3	2	1	2	2	1	520	0	462.420745372772	0	0	0	0
210	3	2	2	2	2	1	727	0	464.486752271652	0	0	0	0
211	3	1	2	2	1	1	692	0	466.769349336624	0	0	0	0
212	3	1	1	1	1	1	610	0	469.018632411957	0	0	0	0
213	3	1	2	2	1	1	597	0	471.184597492218	0	0	0	0
214	3	2	2	2	1	2	528	0	473.333899736404	0	0	0	0
215	3	2	1	2	2	1	645	0	475.416572570801	0	0	0	0
216	3	2	1	1	2	1	686	0	477.615870475769	0	0	0	0
217	3	2	1	1	2	1	692	0	479.86513710022	0	0	0	0
218	3	2	1	2	2	1	539	0	482.114423274994	0	0	0	0
219	3	2	2	1	2	1	496	0	484.197078704834	0	0	0	0
220	3	1	1	2	1	1	616	0	486.246428489685	0	0	0	0
221	3	1	2	2	1	1	530	0	488.412397384644	0	0	0	0
222	3	2	2	1	2	1	622	0	490.495058298111	0	0	0	0
223	3	1	1	1	1	1	688	0	492.677694320679	0	0	0	0
224	3	1	2	2	1	1	631	0	494.926967382431	0	0	0	0
225	3	2	2	1	2	1	560	0	497.109599351883	0	0	0	0
226	3	1	1	2	1	1	836	0	499.225574970245	0	0	0	0
227	3	1	2	1	1	1	645	0	501.608154773712	0	0	0	0
228	3	2	2	1	2	1	702	0	503.807434558868	0	0	0	0
229	3	2	2	1	2	1	588	0	506.073376178741	0	0	0	0
230	3	2	2	1	2	1	583	0	508.206032276154	0	0	0	0
231	3	2	1	1	2	1	459	0	510.33867430687	0	0	0	0
232	3	2	1	2	2	1	611	0	512.354695796967	0	0	0	0
233	3	2	1	2	2	1	517	0	514.520658493042	0	0	0	0
234	3	1	2	1	1	1	546	0	516.603318452835	0	0	0	0
235	3	2	1	1	2	1	560	0	518.702651500702	0	0	0	0
236	3	1	1	1	1	1	659	0	520.818633556366	0	0	0	0
237	3	1	1	1	1	1	628	0	523.034589529037	0	0	0	0
238	3	1	2	1	0	99	0	0	525.217212677002	0	0	0	0
239	3	1	2	1	1	1	767	0	527.783054590225	0	0	0	0
240	3	2	2	2	2	1	619	0	530.098975658417	0	0	0	0
241	3	1	2	1	1	1	589	0	532.264955759048	0	0	0	0
242	3	2	2	2	2	1	672	0	534.397594690323	0	0	0	0
243	3	1	2	2	1	1	673	0	536.613557815552	0	0	0	0
244	3	1	2	1	1	1	800	0	538.846165418625	0	0	0	0
245	3	2	2	1	2	1	730	0	541.195407629013	0	0	0	0
246	3	1	1	1	0	99	0	0	543.478009462357	0	0	0	0
247	3	1	1	2	1	1	682	0	546.04385638237	0	0	0	0
248	3	1	1	2	1	1	553	0	548.276462554932	0	0	0	0
249	3	1	2	2	1	1	759	0	550.375784635544	0	0	0	0
250	3	2	2	2	2	1	483	0	552.691719532013	0	0	0	0
251	3	1	1	2	1	1	562	0	554.72439455986	0	0	0	0
252	3	1	2	1	1	1	558	0	556.840378284454	0	0	0	0
253	3	2	2	2	2	1	698	0	558.95635676384	0	0	0	0
254	3	2	1	2	2	1	800	0	561.205632925034	0	0	0	0
255	3	1	2	1	1	1	739	0	563.571549415588	0	0	0	0
256	3	2	2	1	2	1	591	0	565.870805501938	0	0	0	0
257	3	2	2	2	2	1	978	0	568.020110607147	0	0	0	0
258	3	2	2	2	2	1	654	0	570.552625656128	0	0	0	0
259	3	2	1	1	2	1	782	0	572.751925468445	0	0	0	0
260	3	2	1	2	2	1	474	0	575.084500551224	0	0	0	0
261	3	2	1	1	2	1	513	0	577.117185354233	0	0	0	0
262	3	1	2	2	1	1	575	0	579.183190345764	0	0	0	0
263	3	1	2	2	1	1	514	0	581.315840244293	0	0	0	0
264	3	2	1	1	2	1	680	0	583.381829738617	0	0	0	0
265	3	2	1	2	1	2	625	0	585.614451408386	0	0	0	0
266	3	1	1	2	1	1	889	0	587.797078847885	0	0	0	0
267	3	2	1	2	2	1	672	0	590.246288776398	0	0	0	0
268	3	2	2	1	2	1	856	0	592.462245941162	0	0	0	0
269	3	1	2	2	1	1	721	0	594.878131628036	0	0	0	0
270	3	2	1	2	2	1	758	0	597.144077301025	0	0	0	0
271	3	1	1	1	1	1	859	0	599.45999455452	0	0	0	0
272	3	2	1	2	2	1	660	0	601.87588429451	0	0	0	0
273	3	1	2	2	1	1	771	0	604.091834545135	0	0	0	0
274	3	1	1	1	1	1	471	0	606.407747745514	0	0	0	0
275	3	2	2	2	2	1	607	0	608.423765659332	0	0	0	0
276	3	1	1	1	1	1	745	0	610.589734554291	0	0	0	0
277	3	2	2	2	2	1	822	0	612.889005422592	0	0	0	0
278	3	2	1	1	2	1	592	0	615.271573543549	0	0	0	0
279	3	1	1	1	1	1	578	0	617.420876502991	0	0	0	0
280	3	2	1	1	2	1	534	0	619.553526639938	0	0	0	0
281	3	1	2	1	1	1	779	0	621.636181592941	0	0	0	0
282	3	1	1	2	1	1	758	0	623.968772411346	0	0	0	0
283	3	1	1	1	1	1	562	0	626.284680604935	0	0	0	0
284	3	1	1	2	1	1	598	0	628.400679349899	0	0	0	0
285	3	1	2	2	1	1	689	0	630.549973726273	0	0	0	0
286	3	2	2	1	2	1	760	0	632.799258470535	0	0	0	0
287	3	2	2	2	2	1	636	0	635.115182638168	0	0	0	0
288	3	1	1	1	1	1	693	0	637.314462661743	0	0	0	0
289	4	2	1	2	2	1	807	0	647.927721738815	0	0	0	0
290	4	1	1	2	1	1	506	0	650.293615579605	0	0	0	0
291	4	2	1	1	2	1	512	0	652.342960834503	0	0	0	0
292	4	1	2	2	1	1	654	0	654.408968448639	0	0	0	0
293	4	1	2	2	1	1	478	0	656.624922275543	0	0	0	0
294	4	1	1	2	1	1	469	0	658.657595396042	0	0	0	0
295	4	1	1	1	1	1	605	0	660.690276384354	0	0	0	0
296	4	2	2	1	2	1	704	0	662.839587926865	0	0	0	0
297	4	1	2	1	1	1	534	0	665.088850736618	0	0	0	0
298	4	1	2	2	1	1	652	0	667.171516895294	0	0	0	0
299	4	1	2	2	1	1	540	0	669.387463569641	0	0	0	0
300	4	1	2	1	1	1	584	0	671.486788511276	0	0	0	0
301	4	1	1	2	1	1	524	0	673.619440793991	0	0	0	0
302	4	2	2	1	2	1	641	0	675.702107429504	0	0	0	0
303	4	2	1	2	2	1	546	0	677.90139746666	0	0	0	0
304	4	1	2	2	1	1	607	0	680.000715732574	0	0	0	0
305	4	2	1	1	2	1	553	0	682.166689395905	0	0	0	0
306	4	1	1	2	1	1	637	0	684.282678842545	0	0	0	0
307	4	1	2	1	1	1	879	0	686.465309381485	0	0	0	0
308	4	2	2	2	2	1	710	0	688.897849559784	0	0	0	0
309	4	2	2	1	2	1	884	0	691.163784742355	0	0	0	0
310	4	1	2	2	1	1	563	0	693.596337795258	0	0	0	0
311	4	1	2	1	1	1	687	0	695.712330341339	0	0	0	0
312	4	2	2	1	2	1	847	0	697.944940328598	0	0	0	0
313	4	2	1	1	2	1	560	0	700.34415769577	0	0	0	0
314	4	1	1	1	1	1	780	0	702.460143327713	0	0	0	0
315	4	1	2	1	1	1	703	0	704.792726516724	0	0	0	0
316	4	1	2	1	1	1	589	0	707.058668375015	0	0	0	0
317	4	1	2	2	1	1	937	0	709.191314458847	0	0	0	0
318	4	2	1	1	2	1	854	0	711.673847675323	0	0	0	0
319	4	1	1	2	1	1	806	0	714.0730676651	0	0	0	0
320	4	1	2	1	1	1	817	0	716.43897485733	0	0	0	0
321	4	2	1	1	2	1	611	0	718.821548461914	0	0	0	0
322	4	2	1	2	2	1	510	0	720.987518310547	0	0	0	0
323	4	2	1	2	2	1	866	0	723.053516864777	0	0	0	0
324	4	1	1	1	1	1	586	0	725.469398736954	0	0	0	0
325	4	2	1	2	2	1	550	0	727.60205245018	0	0	0	0
326	4	1	2	2	1	1	794	0	729.701375484467	0	0	0	0
327	4	2	1	2	2	1	549	0	732.050617456436	0	0	0	0
328	4	1	1	1	1	1	498	0	734.149936914444	0	0	0	0
329	4	1	1	2	1	1	585	0	736.199273586273	0	0	0	0
330	4	1	2	1	1	1	733	0	738.331926822662	0	0	0	0
331	4	2	1	1	2	1	585	0	740.614516496658	0	0	0	0
332	4	1	1	2	1	1	556	0	742.763831377029	0	0	0	0
333	4	2	2	1	2	1	712	0	744.879816055298	0	0	0	0
334	4	2	2	2	2	1	534	0	747.145741701126	0	0	0	0
335	4	2	2	2	2	1	483	0	749.228407621384	0	0	0	0
336	4	1	1	1	1	1	555	0	751.261084794998	0	0	0	0
337	4	2	2	2	2	1	647	0	753.377075433731	0	0	0	0
338	4	2	2	1	0	99	0	0	755.576369524002	0	0	0	0
339	4	1	1	1	1	1	650	0	758.142203330994	0	0	0	0
340	4	2	2	2	2	1	642	0	760.341496706009	0	0	0	0
341	4	2	1	1	2	1	747	0	762.540790319443	0	0	0	0
342	4	1	2	2	1	1	616	0	764.840048313141	0	0	0	0
343	4	1	2	1	1	1	843	0	767.006012439728	0	0	0	0
344	4	2	1	2	2	1	515	0	769.405244350433	0	0	0	0
345	4	2	1	2	2	1	481	0	771.47124171257	0	0	0	0
346	4	1	1	2	1	1	512	0	773.503910779953	0	0	0	0
347	4	1	2	1	1	1	694	0	775.569918632507	0	0	0	0
348	4	2	2	2	2	1	630	0	777.819185256958	0	0	0	0
349	4	2	2	1	2	1	478	0	780.001822710037	0	0	0	0
350	4	1	2	2	1	1	558	0	782.034507989883	0	0	0	0
351	4	1	2	1	1	1	498	0	784.150477647781	0	0	0	0
352	4	2	1	1	2	1	617	0	786.199829339981	0	0	0	0
353	4	2	1	1	2	1	514	0	788.382454633713	0	0	0	0
354	4	2	2	1	2	1	736	0	790.4484603405	0	0	0	0
355	4	1	2	2	1	1	509	0	792.747719287872	0	0	0	0
356	4	2	2	2	2	1	675	0	794.81371307373	0	0	0	0
357	4	1	1	1	1	1	714	0	797.046334505081	0	0	0	0
358	4	1	1	2	1	1	784	0	799.312266349792	0	0	0	0
359	4	2	2	2	2	1	756	0	801.661510467529	0	0	0	0
360	4	1	1	1	1	1	655	0	803.977428913116	0	0	0	0
361	4	2	1	1	2	1	624	0	806.176710128784	0	0	0	0
362	4	2	1	2	2	1	481	0	808.359347343445	0	0	0	0
363	4	2	1	1	2	1	456	0	810.392017602921	0	0	0	0
364	4	1	1	1	1	1	585	0	812.408035516739	0	0	0	0
365	4	2	1	1	2	1	611	0	814.557343006134	0	0	0	0
366	4	2	2	2	2	1	798	0	816.723313570023	0	0	0	0
367	4	1	1	1	1	1	776	0	819.072557926178	0	0	0	0
368	4	1	1	2	1	1	676	0	821.405131816864	0	0	0	0
369	4	2	2	2	2	1	867	0	823.637749433517	0	0	0	0
370	4	2	2	1	2	1	483	0	826.053637742996	0	0	0	0
371	4	2	2	2	2	1	530	0	828.08632349968	0	0	0	0
372	4	2	2	2	2	1	512	0	830.168973684311	0	0	0	0
373	4	2	1	2	2	1	607	0	832.234979629517	0	0	0	0
374	4	1	1	2	1	1	745	0	834.400944709778	0	0	0	0
375	4	1	1	1	1	1	532	0	836.700213670731	0	0	0	0
376	4	1	1	1	1	1	490	0	838.782873392105	0	0	0	0
377	4	1	2	2	1	1	809	0	840.832214355469	0	0	0	0
378	4	2	2	1	2	1	611	0	843.198112487793	0	0	0	0
379	4	2	1	2	2	1	893	0	845.364072561264	0	0	0	0
380	4	1	2	1	1	1	652	0	847.813292503357	0	0	0	0
381	4	2	1	2	2	1	644	0	850.029237747192	0	0	0	0
382	4	2	2	1	2	1	692	0	852.228524446487	0	0	0	0
383	4	2	2	1	2	1	619	0	854.477806568146	0	0	0	0
384	4	1	1	2	1	1	686	0	856.643770933151	0	0	0	0
