Trial	Block	stimside	congruentcondition	colors	respside	accuracy	RT	reward	trialtime	tmstime	query	qresp	qrt
1	1	1	1	2	0	99	0	0	-0.0129480361938477	0	0	0	0
2	1	1	2	1	1	1	614	0	5.25198483467102	0	0	0	0
3	1	1	1	1	1	1	481	0	7.41795444488525	0	0	0	0
4	1	2	2	2	2	1	577	0	9.45060777664185	0	0	0	0
5	1	2	1	2	2	1	411	0	11.5832412242889	0	0	0	0
6	1	2	2	1	2	1	477	0	13.5659365653992	0	0	0	0
7	1	1	2	2	1	1	604	0	15.5985975265503	0	0	0	0
8	1	2	1	2	2	1	471	0	17.7479004859924	0	0	0	0
9	1	1	1	2	1	1	519	0	19.763899564743	0	0	0	0
10	1	2	1	1	2	1	436	0	21.8465535640717	0	0	0	0
11	1	2	2	1	2	1	470	0	23.8458919525146	0	0	0	0
12	1	2	1	2	2	1	469	0	25.8619055747986	0	0	0	0
13	1	1	1	2	1	1	501	0	27.8779134750366	0	0	0	0
14	1	1	2	1	2	2	467	0	29.9272406101227	0	0	0	0
15	1	2	1	2	2	1	659	0	31.9432346820831	0	0	0	0
16	1	1	1	2	1	1	573	0	34.1591875553131	0	0	0	0
17	1	2	1	1	2	1	487	0	36.2918207645416	0	0	0	0
18	1	1	1	2	1	1	550	0	38.3244774341583	0	0	0	0
19	1	1	1	1	1	1	723	0	40.4237949848175	0	0	0	0
20	1	1	2	1	1	1	616	0	42.7063779830933	0	0	0	0
21	1	2	2	1	1	2	499	0	44.8723278045654	0	0	0	0
22	1	1	1	2	1	1	689	0	46.9216694831848	0	0	0	0
23	1	2	1	2	2	1	408	0	49.1709225177765	0	0	0	0
24	1	2	2	1	1	2	442	0	51.1369545459747	0	0	0	0
25	1	2	1	2	2	1	426	0	53.136287689209	0	0	0	0
26	1	1	2	2	1	1	653	0	55.1189820766449	0	0	0	0
27	1	2	2	1	2	1	580	0	57.3349244594574	0	0	0	0
28	1	2	2	2	2	1	559	0	59.4675447940826	0	0	0	0
29	1	1	2	1	1	1	699	0	61.5835256576538	0	0	0	0
30	1	1	2	1	1	1	834	0	63.832781791687	0	0	0	0
31	1	1	1	1	1	1	468	0	66.2153453826904	0	0	0	0
32	1	1	2	1	1	1	579	0	68.2480103969574	0	0	0	0
33	1	2	1	2	2	1	670	0	70.3806347846985	0	0	0	0
34	1	1	2	2	1	1	534	0	72.5965845584869	0	0	0	0
35	1	2	2	1	2	1	644	0	74.6792268753052	0	0	0	0
36	1	1	2	1	1	1	588	0	76.8785195350647	0	0	0	0
37	1	1	2	2	1	1	807	0	79.0278134346008	0	0	0	0
38	1	1	1	1	1	1	890	0	81.3936948776245	0	0	0	0
39	1	1	1	2	1	1	984	0	83.8429005146027	0	0	0	0
40	1	2	1	1	2	1	388	0	86.3753952980042	0	0	0	0
41	1	1	2	2	1	1	585	0	88.3080937862396	0	0	0	0
42	1	2	1	2	2	1	482	0	90.4407424926758	0	0	0	0
43	1	1	1	2	1	1	482	0	92.4734008312225	0	0	0	0
44	1	1	2	2	1	1	465	0	94.5060665607452	0	0	0	0
45	1	2	1	1	2	1	465	0	96.5220725536346	0	0	0	0
46	1	2	2	2	2	1	673	0	98.5380766391754	0	0	0	0
47	1	1	2	2	1	1	632	0	100.770686149597	0	0	0	0
48	1	2	2	2	1	2	418	0	102.953296661377	0	0	0	0
49	1	1	2	1	1	1	692	0	104.919317722321	0	0	0	0
50	1	2	1	1	2	1	682	0	107.168593645096	0	0	0	0
51	1	1	2	1	1	1	626	0	109.401183843613	0	0	0	0
52	1	1	1	1	2	2	555	0	111.583813428879	0	0	0	0
53	1	1	2	2	1	1	632	0	113.683122873306	0	0	0	0
54	1	1	2	1	1	1	673	0	115.865745544434	0	0	0	0
55	1	1	2	2	1	1	553	0	118.098333835602	0	0	0	0
56	1	1	2	1	1	1	581	0	120.197653055191	0	0	0	0
57	1	2	2	2	2	1	658	0	122.330293655396	0	0	0	0
58	1	2	2	1	2	1	537	0	124.546234607697	0	0	0	0
59	1	2	2	1	2	1	502	0	126.64554142952	0	0	0	0
60	1	1	2	2	1	1	643	0	128.711534500122	0	0	0	0
61	1	2	1	2	2	1	396	0	130.910813808441	0	0	0	0
62	1	2	2	2	2	1	592	0	132.860169649124	0	0	0	0
63	1	2	2	2	2	1	458	0	135.009469747543	0	0	0	0
64	1	2	1	2	2	1	410	0	137.025480508804	0	0	0	0
65	1	2	2	1	1	2	508	0	138.991499662399	0	0	0	0
66	1	1	2	1	1	1	570	0	141.057482481003	0	0	0	0
67	1	1	1	1	2	2	678	0	143.173455715179	0	0	0	0
68	1	2	1	1	2	1	477	0	145.40606546402	0	0	0	0
69	1	1	2	2	1	1	684	0	147.438734531403	0	0	0	0
70	1	2	1	1	2	1	435	0	149.687994718552	0	0	0	0
71	1	2	2	1	2	1	740	0	151.687337398529	0	0	0	0
72	1	1	1	2	1	1	537	0	153.969921827316	0	0	0	0
73	1	1	2	2	1	1	502	0	156.052578449249	0	0	0	0
74	1	2	1	2	2	1	597	0	158.101901054382	0	0	0	0
75	1	2	2	2	2	1	881	0	160.251195669174	0	0	0	0
76	1	1	1	2	1	1	608	0	162.68373298645	0	0	0	0
77	1	2	2	2	2	1	730	0	164.849700450897	0	0	0	0
78	1	2	1	1	2	1	463	0	167.132274866104	0	0	0	0
79	1	1	1	1	1	1	719	0	169.148281812668	0	0	0	0
80	1	2	1	1	2	1	357	0	171.414212703705	0	0	0	0
81	1	1	1	2	1	1	474	0	173.330254793167	0	0	0	0
82	1	2	2	1	2	1	632	0	175.362922430038	0	0	0	0
83	1	1	1	1	1	1	914	0	177.545534849167	0	0	0	0
84	1	2	2	2	2	1	464	0	180.011394739151	0	0	0	0
85	1	1	1	1	1	1	848	0	182.027406692505	0	0	0	0
86	1	1	1	1	1	1	561	0	184.426617860794	0	0	0	0
87	1	2	1	1	2	1	429	0	186.542594432831	0	0	0	0
88	1	2	2	2	1	2	558	0	188.525281429291	0	0	0	0
89	1	2	1	1	2	1	394	0	190.641251564026	0	0	0	0
90	1	2	1	2	2	1	381	0	192.590613603592	0	0	0	0
91	1	1	1	1	1	1	497	0	194.523308753967	0	0	0	0
92	1	2	2	1	2	1	591	0	196.572641849518	0	0	0	0
93	1	2	2	2	2	1	697	0	198.721929788589	0	0	0	0
94	1	1	1	2	1	1	672	0	200.971207380295	0	0	0	0
95	1	2	1	1	2	1	328	0	203.187148571014	0	0	0	0
96	1	1	1	1	1	1	462	0	205.069866418839	0	0	0	0
97	2	2	2	2	2	1	599	0	215.316511869431	0	0	0	0
98	2	2	1	1	2	1	369	0	217.465795755386	0	0	0	0
99	2	2	1	1	2	1	358	0	219.381843566895	0	0	0	0
100	2	2	2	2	2	1	586	0	221.297884702682	0	0	0	0
101	2	2	1	1	2	1	389	0	223.430512428284	0	0	0	0
102	2	1	2	2	0	99	0	0	225.363208770752	0	0	0	0
103	2	1	2	2	1	1	514	0	227.929049015045	0	0	0	0
104	2	1	1	1	2	2	401	0	229.995032548904	0	0	0	0
105	2	2	2	2	1	2	547	0	231.944401979446	0	0	0	0
106	2	2	2	1	2	1	432	0	234.043700933456	0	0	0	0
107	2	1	1	2	1	1	625	0	236.026387214661	0	0	0	0
108	2	1	2	1	2	2	458	0	238.209003448486	0	0	0	0
109	2	2	1	1	2	1	538	0	240.225022554398	0	0	0	0
110	2	1	1	2	1	1	471	0	242.324323415756	0	0	0	0
111	2	1	2	2	1	1	678	0	244.356996059418	0	0	0	0
112	2	2	1	2	2	1	431	0	246.589604854584	0	0	0	0
113	2	2	1	2	2	1	447	0	248.572287797928	0	0	0	0
114	2	1	2	2	0	99	0	0	250.571624755859	0	0	0	0
115	2	1	2	2	1	1	554	0	253.137458086014	0	0	0	0
116	2	1	1	1	1	1	679	0	255.236766576767	0	0	0	0
117	2	2	1	2	2	1	478	0	257.469369649887	0	0	0	0
118	2	2	2	2	2	1	733	0	259.502043485641	0	0	0	0
119	2	1	2	1	1	1	611	0	261.784621715546	0	0	0	0
120	2	1	1	2	1	1	589	0	263.950592041016	0	0	0	0
121	2	2	1	2	2	1	392	0	266.099880695343	0	0	0	0
122	2	1	2	2	2	2	363	0	268.049251556396	0	0	0	0
123	2	1	2	2	1	1	510	0	269.965280771255	0	0	0	0
124	2	1	1	1	1	1	668	0	272.031277656555	0	0	0	0
125	2	1	1	2	1	1	516	0	274.263879060745	0	0	0	0
126	2	1	1	1	1	1	434	0	276.329863071442	0	0	0	0
127	2	2	2	2	2	1	691	0	278.312552690506	0	0	0	0
128	2	2	2	1	2	1	490	0	280.561810731888	0	0	0	0
129	2	2	1	2	2	1	426	0	282.594486713409	0	0	0	0
130	2	2	2	1	2	1	571	0	284.577163696289	0	0	0	0
131	2	1	2	1	1	1	646	0	286.709806919098	0	0	0	0
132	2	1	2	1	1	1	655	0	288.909086704254	0	0	0	0
133	2	1	1	1	1	1	471	0	291.108367443085	0	0	0	0
134	2	1	2	1	1	1	439	0	293.124379634857	0	0	0	0
135	2	2	1	1	1	2	472	0	295.12371468544	0	0	0	0
136	2	1	1	2	1	1	487	0	297.156379461288	0	0	0	0
137	2	2	2	2	2	1	582	0	299.205721139908	0	0	0	0
138	2	1	1	1	1	1	578	0	301.338354825974	0	0	0	0
139	2	1	2	1	1	1	685	0	303.470984458923	0	0	0	0
140	2	2	1	1	0	99	0	0	305.703583717346	0	0	0	0
141	2	2	1	2	2	1	430	0	308.286072731018	0	0	0	0
142	2	1	1	1	1	1	559	0	310.268758773804	0	0	0	0
143	2	2	1	2	2	1	555	0	312.384731769562	0	0	0	0
144	2	2	2	1	2	1	728	0	314.484045028687	0	0	0	0
145	2	1	2	2	1	1	813	0	316.766644477844	0	0	0	0
146	2	1	1	1	1	1	463	0	319.132523775101	0	0	0	0
147	2	1	2	2	1	1	448	0	321.148532152176	0	0	0	0
148	2	2	2	2	2	1	447	0	323.164551496506	0	0	0	0
149	2	2	1	1	2	1	448	0	325.163882732391	0	0	0	0
150	2	1	1	2	1	1	721	0	327.16323184967	0	0	0	0
151	2	2	1	1	2	1	407	0	329.429157733917	0	0	0	0
152	2	1	1	1	1	1	505	0	331.395179748535	0	0	0	0
153	2	2	2	2	2	1	615	0	333.461179971695	0	0	0	0
154	2	2	2	1	2	1	545	0	335.627133369446	0	0	0	0
155	2	1	1	1	1	1	781	0	337.726449489594	0	0	0	0
156	2	2	2	2	2	1	545	0	340.059015512466	0	0	0	0
157	2	2	2	2	1	2	558	0	342.158335447311	0	0	0	0
158	2	2	1	1	2	1	474	0	344.27431178093	0	0	0	0
159	2	1	2	1	1	1	570	0	346.306970834732	0	0	0	0
160	2	1	2	1	1	1	485	0	348.422940254211	0	0	0	0
161	2	1	2	1	2	2	340	0	350.4556183815	0	0	0	0
162	2	2	2	1	2	1	505	0	352.354996442795	0	0	0	0
163	2	2	2	1	1	2	983	0	354.420988798141	0	0	0	0
164	2	1	1	2	1	1	642	0	356.970149755478	0	0	0	0
165	2	2	2	1	2	1	491	0	359.169432640076	0	0	0	0
166	2	2	1	1	2	1	377	0	361.218754053116	0	0	0	0
167	2	1	1	2	0	99	0	0	363.151468276978	0	0	0	0
168	2	1	2	2	1	1	439	0	365.717295408249	0	0	0	0
169	2	2	1	2	2	1	423	0	367.716629743576	0	0	0	0
170	2	2	2	1	1	2	441	0	369.699318408966	0	0	0	0
171	2	1	1	1	1	1	473	0	371.698670625687	0	0	0	0
172	2	1	2	1	1	1	489	0	373.731330633163	0	0	0	0
173	2	1	1	2	1	1	471	0	375.780669689178	0	0	0	0
174	2	1	2	1	2	2	407	0	377.8133289814	0	0	0	0
175	2	2	2	1	2	1	489	0	379.779354572296	0	0	0	0
176	2	2	1	2	2	1	344	0	381.81202507019	0	0	0	0
177	2	1	1	2	1	1	349	0	383.711405754089	0	0	0	0
178	2	1	2	2	1	1	578	0	385.61078286171	0	0	0	0
179	2	2	1	1	2	1	685	0	387.743410348892	0	0	0	0
180	2	1	1	1	1	1	483	0	389.992676734924	0	0	0	0
181	2	1	2	1	2	2	355	0	392.025352716446	0	0	0	0
182	2	2	2	2	2	1	664	0	393.92472577095	0	0	0	0
183	2	1	1	2	1	1	656	0	396.140665769577	0	0	0	0
184	2	1	2	2	1	1	632	0	398.3566198349	0	0	0	0
185	2	2	2	1	2	1	641	0	400.539230585098	0	0	0	0
186	2	1	1	2	1	1	458	0	402.738516569138	0	0	0	0
187	2	2	2	1	1	2	362	0	404.754517793655	0	0	0	0
188	2	2	2	2	2	1	542	0	406.670566082001	0	0	0	0
189	2	2	1	2	2	1	410	0	408.769868373871	0	0	0	0
190	2	2	1	2	2	1	316	0	410.735899209976	0	0	0	0
191	2	2	1	1	2	1	402	0	412.601950883865	0	0	0	0
192	2	2	1	2	2	1	405	0	414.551312923431	0	0	0	0
193	3	2	2	1	1	2	367	0	426.797305107117	0	0	0	0
194	3	1	2	2	1	1	452	0	428.713357448578	0	0	0	0
195	3	1	2	1	1	1	579	0	430.729358911514	0	0	0	0
196	3	1	2	1	2	2	382	0	432.861989498138	0	0	0	0
197	3	1	2	2	1	1	674	0	434.79468870163	0	0	0	0
198	3	1	2	2	1	1	489	0	437.027291059494	0	0	0	0
199	3	1	2	2	1	1	648	0	439.059969425201	0	0	0	0
200	3	1	2	1	1	1	577	0	441.259246110916	0	0	0	0
201	3	1	2	2	1	1	381	0	443.391880512238	0	0	0	0
202	3	1	2	1	1	1	609	0	445.324579715729	0	0	0	0
203	3	1	1	2	1	1	490	0	447.490545511246	0	0	0	0
204	3	2	1	1	2	1	379	0	449.523216485977	0	0	0	0
205	3	1	1	1	1	1	541	0	451.455905675888	0	0	0	0
206	3	1	1	2	1	1	425	0	453.555220842361	0	0	0	0
207	3	1	2	1	1	1	571	0	455.537903547287	0	0	0	0
208	3	1	1	1	1	1	344	0	457.653877735138	0	0	0	0
209	3	2	1	2	1	2	571	0	459.553269147873	0	0	0	0
210	3	1	1	2	1	1	600	0	461.66924071312	0	0	0	0
211	3	2	2	1	2	1	659	0	463.818538427353	0	0	0	0
212	3	2	2	2	2	1	650	0	466.034478664398	0	0	0	0
213	3	2	1	2	2	1	387	0	468.233756065369	0	0	0	0
214	3	1	2	2	1	1	518	0	470.166455984116	0	0	0	0
215	3	2	1	2	2	1	517	0	472.232443809509	0	0	0	0
216	3	2	2	2	2	1	738	0	474.298436403275	0	0	0	0
217	3	1	1	1	1	1	536	0	476.597686767578	0	0	0	0
218	3	1	1	2	2	2	580	0	478.697007894516	0	0	0	0
219	3	2	2	1	2	1	543	0	480.829634189606	0	0	0	0
220	3	1	2	1	1	1	588	0	482.928957700729	0	0	0	0
221	3	1	1	1	2	2	519	0	485.061591386795	0	0	0	0
222	3	1	1	1	1	1	453	0	487.127583503723	0	0	0	0
223	3	1	2	2	1	1	549	0	489.143587589264	0	0	0	0
224	3	2	1	2	2	1	466	0	491.242903470993	0	0	0	0
225	3	2	2	1	2	1	530	0	493.258903026581	0	0	0	0
226	3	2	2	1	2	1	432	0	495.341559648514	0	0	0	0
227	3	2	2	1	2	1	369	0	497.324252605438	0	0	0	0
228	3	1	2	1	1	1	533	0	499.256944656372	0	0	0	0
229	3	2	1	1	2	1	498	0	501.339606523514	0	0	0	0
230	3	1	2	1	1	1	480	0	503.388936758041	0	0	0	0
231	3	2	1	2	1	2	463	0	505.421605587006	0	0	0	0
232	3	2	1	1	2	1	464	0	507.437613487244	0	0	0	0
233	3	1	1	1	1	1	560	0	509.453617811203	0	0	0	0
234	3	2	2	2	2	1	539	0	511.569584846497	0	0	0	0
235	3	1	1	1	1	1	936	0	513.668899536133	0	0	0	0
236	3	1	1	1	1	1	487	0	516.151416778564	0	0	0	0
237	3	1	1	1	1	1	453	0	518.184089660645	0	0	0	0
238	3	1	1	2	1	1	502	0	520.183437585831	0	0	0	0
239	3	2	1	1	2	1	515	0	522.249425649643	0	0	0	0
240	3	1	2	2	1	1	625	0	524.315417766571	0	0	0	0
241	3	1	1	2	1	1	587	0	526.498035669327	0	0	0	0
242	3	1	1	2	0	99	0	0	528.63067650795	0	0	0	0
243	3	2	1	1	2	1	513	0	531.196501493454	0	0	0	0
244	3	1	2	2	1	1	686	0	533.279151678085	0	0	0	0
245	3	2	1	2	2	1	629	0	535.528425455093	0	0	0	0
246	3	1	1	1	1	1	686	0	537.711035728455	0	0	0	0
247	3	2	1	2	2	1	565	0	539.943646430969	0	0	0	0
248	3	1	1	1	1	1	385	0	542.059621810913	0	0	0	0
249	3	2	1	1	2	1	405	0	543.992318630219	0	0	0	0
250	3	2	2	2	2	1	503	0	545.958340644836	0	0	0	0
251	3	2	1	1	2	1	389	0	548.007673501968	0	0	0	0
252	3	2	2	2	2	1	569	0	549.940367698669	0	0	0	0
253	3	2	2	1	2	1	677	0	552.056348085403	0	0	0	0
254	3	1	2	1	1	1	492	0	554.288953065872	0	0	0	0
255	3	1	1	1	1	1	411	0	556.338282823563	0	0	0	0
256	3	2	2	2	1	2	413	0	558.304312705994	0	0	0	0
257	3	2	1	2	2	1	447	0	560.270324707031	0	0	0	0
258	3	2	1	1	2	1	416	0	562.269670724869	0	0	0	0
259	3	2	2	1	2	1	548	0	564.235697746277	0	0	0	0
260	3	2	2	2	1	2	622	0	566.335017442703	0	0	0	0
261	3	2	1	1	2	1	537	0	568.517640590668	0	0	0	0
262	3	2	2	2	1	2	548	0	570.616944789886	0	0	0	0
263	3	1	2	2	2	2	641	0	572.716255664825	0	0	0	0
264	3	2	1	2	2	1	570	0	574.915534734726	0	0	0	0
265	3	1	2	1	1	1	598	0	577.031522512436	0	0	0	0
266	3	1	1	2	2	2	529	0	579.180813789368	0	0	0	0
267	3	1	2	1	1	1	446	0	581.263472557068	0	0	0	0
268	3	1	2	2	1	1	511	0	583.262807607651	0	0	0	0
269	3	2	1	2	2	1	796	0	585.32880282402	0	0	0	0
270	3	2	2	1	2	1	559	0	587.67804145813	0	0	0	0
271	3	2	2	1	2	1	475	0	589.794007062912	0	0	0	0
272	3	1	1	2	1	1	907	0	591.826678037643	0	0	0	0
273	3	2	2	2	2	1	553	0	594.292536735535	0	0	0	0
274	3	2	1	1	2	1	582	0	596.391855478287	0	0	0	0
275	3	2	2	2	1	2	657	0	598.524490594864	0	0	0	0
276	3	1	1	2	1	1	809	0	600.740431547165	0	0	0	0
277	3	1	2	2	1	1	619	0	603.106326818466	0	0	0	0
278	3	2	2	2	2	1	501	0	605.288943529129	0	0	0	0
279	3	2	1	2	2	1	388	0	607.338283777237	0	0	0	0
280	3	1	1	2	1	1	438	0	609.270980834961	0	0	0	0
281	3	2	1	1	2	1	505	0	611.270325660706	0	0	0	0
282	3	2	1	2	2	1	742	0	613.319659471512	0	0	0	0
283	3	2	1	1	2	1	379	0	615.618897199631	0	0	0	0
284	3	2	2	1	2	1	526	0	617.551603078842	0	0	0	0
285	3	2	2	1	2	1	331	0	619.634264230728	0	0	0	0
286	3	1	2	1	2	2	464	0	621.516971588135	0	0	0	0
287	3	1	1	2	1	1	496	0	623.532980680466	0	0	0	0
288	3	2	2	2	2	1	527	0	625.582306146622	0	0	0	0
289	4	1	2	1	1	1	529	0	636.028896808624	0	0	0	0
290	4	2	2	2	2	1	462	0	638.11155462265	0	0	0	0
291	4	2	1	2	1	2	526	0	640.12756061554	0	0	0	0
292	4	2	2	2	1	2	412	0	642.210203647614	0	0	0	0
293	4	2	1	1	2	1	302	0	644.176231384277	0	0	0	0
294	4	1	2	1	2	2	259	0	646.042294740677	0	0	0	0
295	4	2	1	1	2	1	476	0	647.858359098434	0	0	0	0
296	4	1	1	1	1	1	427	0	649.891037464142	0	0	0	0
297	4	1	2	1	2	2	348	0	651.873718500137	0	0	0	0
298	4	1	2	1	1	1	448	0	653.773097515106	0	0	0	0
299	4	2	2	1	2	1	529	0	655.772435665131	0	0	0	0
300	4	2	1	2	2	1	479	0	657.855096578598	0	0	0	0
301	4	1	1	2	1	1	462	0	659.88777256012	0	0	0	0
302	4	2	1	1	2	1	302	0	661.903774738312	0	0	0	0
303	4	1	1	2	1	1	436	0	663.753164768219	0	0	0	0
304	4	1	2	2	1	1	374	0	665.752507686615	0	0	0	0
305	4	1	1	2	1	1	376	0	667.685209512711	0	0	0	0
306	4	2	2	2	1	2	476	0	669.617924451828	0	0	0	0
307	4	2	1	1	2	1	555	0	671.650579929352	0	0	0	0
308	4	1	2	1	2	2	584	0	673.749902963638	0	0	0	0
309	4	1	1	2	1	1	740	0	675.882542848587	0	0	0	0
310	4	2	2	2	2	1	536	0	678.181793212891	0	0	0	0
311	4	1	2	2	2	2	501	0	680.281101465225	0	0	0	0
312	4	2	2	1	2	1	819	0	682.330433607101	0	0	0	0
313	4	2	2	2	2	1	485	0	684.696331739426	0	0	0	0
314	4	1	1	2	1	1	613	0	686.72899055481	0	0	0	0
315	4	1	1	1	1	1	575	0	688.894956588745	0	0	0	0
316	4	2	1	2	2	1	459	0	691.027590274811	0	0	0	0
317	4	2	2	1	1	2	506	0	693.043590068817	0	0	0	0
318	4	1	1	1	1	1	520	0	695.109593153	0	0	0	0
319	4	1	2	2	1	1	615	0	697.175583600998	0	0	0	0
320	4	2	1	2	2	1	544	0	699.341539382935	0	0	0	0
321	4	1	2	1	1	1	653	0	701.440854549408	0	0	0	0
322	4	2	2	1	2	1	693	0	703.656795978546	0	0	0	0
323	4	2	2	2	2	1	636	0	705.906063556671	0	0	0	0
324	4	1	2	2	2	2	534	0	708.088672637939	0	0	0	0
325	4	1	2	2	1	1	563	0	710.17132973671	0	0	0	0
326	4	2	1	2	2	1	623	0	712.287310600281	0	0	0	0
327	4	2	1	1	2	1	424	0	714.469928979874	0	0	0	0
328	4	2	2	1	2	1	601	0	716.452616214752	0	0	0	0
329	4	1	1	2	1	1	724	0	718.601903438568	0	0	0	0
330	4	1	2	1	0	99	0	0	720.884487390518	0	0	0	0
331	4	2	2	1	2	1	388	0	723.450320959091	0	0	0	0
332	4	1	2	1	1	1	551	0	725.399684667587	0	0	0	0
333	4	2	1	2	2	1	403	0	727.515659809113	0	0	0	0
334	4	1	1	1	1	1	565	0	729.465017795563	0	0	0	0
335	4	2	2	1	1	2	465	0	731.580995082855	0	0	0	0
336	4	2	1	2	2	1	434	0	733.597008943558	0	0	0	0
337	4	1	1	1	1	1	434	0	735.579664707184	0	0	0	0
338	4	2	1	1	2	1	435	0	737.578985452652	0	0	0	0
339	4	1	2	2	1	1	740	0	739.561651706696	0	0	0	0
340	4	2	2	1	1	2	442	0	741.860866785049	0	0	0	0
341	4	1	1	2	1	1	714	0	743.860190868378	0	0	0	0
342	4	1	2	2	1	1	559	0	746.142754793167	0	0	0	0
343	4	1	1	1	2	2	539	0	748.258708715439	0	0	0	0
344	4	1	1	1	2	2	521	0	750.357991695404	0	0	0	0
345	4	2	1	1	1	2	662	0	752.423952817917	0	0	0	0
346	4	2	1	2	2	1	526	0	754.63987159729	0	0	0	0
347	4	2	2	2	2	1	443	0	756.722491025925	0	0	0	0
348	4	2	2	1	2	1	716	0	758.721816778183	0	0	0	0
349	4	2	2	2	2	1	482	0	760.987720489502	0	0	0	0
350	4	1	2	2	1	1	754	0	763.020370483398	0	0	0	0
351	4	1	1	1	1	1	838	0	765.319578886032	0	0	0	0
352	4	2	1	1	2	1	584	0	767.702105045319	0	0	0	0
353	4	1	2	1	1	1	691	0	769.851375818253	0	0	0	0
354	4	2	1	2	2	1	777	0	772.100614786148	0	0	0	0
355	4	2	1	1	2	1	477	0	774.433169603348	0	0	0	0
356	4	2	2	1	2	1	508	0	776.465802431107	0	0	0	0
357	4	1	2	1	1	1	618	0	778.531780481339	0	0	0	0
358	4	2	1	2	2	1	420	0	780.697710514069	0	0	0	0
359	4	1	2	2	1	1	629	0	782.680376529694	0	0	0	0
360	4	1	1	1	1	1	495	0	784.862971782684	0	0	0	0
361	4	1	1	2	1	1	541	0	786.912278413773	0	0	0	0
362	4	2	2	2	2	1	826	0	789.011569738388	0	0	0	0
363	4	1	2	1	2	2	10	0	791.394083976746	0	0	0	0
364	4	1	1	1	2	2	10	0	792.960221529007	0	0	0	0
365	4	2	2	2	2	1	10	0	794.526357650757	0	0	0	0
366	4	2	2	1	2	1	498	0	796.092507600784	0	0	0	0
367	4	2	1	2	2	1	432	0	798.141811609268	0	0	0	0
368	4	2	2	2	2	1	386	0	800.1244764328	0	0	0	0
369	4	2	1	2	2	1	372	0	802.057146787643	0	0	0	0
370	4	2	1	1	2	1	472	0	803.989826440811	0	0	0	0
371	4	1	2	1	1	1	839	0	806.022470712662	0	0	0	0
372	4	1	2	2	2	2	729	0	808.405000686646	0	0	0	0
373	4	1	1	2	1	1	543	0	810.687560796738	0	0	0	0
374	4	1	2	2	1	1	683	0	812.786862611771	0	0	0	0
375	4	1	1	2	1	1	498	0	815.019430398941	0	0	0	0
376	4	2	1	1	2	1	497	0	817.068738698959	0	0	0	0
377	4	2	2	1	2	1	575	0	819.118045568466	0	0	0	0
378	4	1	1	2	1	1	524	0	821.250660657883	0	0	0	0
379	4	1	1	2	1	1	536	0	823.333300590515	0	0	0	0
380	4	2	1	1	2	1	534	0	825.415922403336	0	0	0	0
381	4	1	1	1	1	1	498	0	827.515208005905	0	0	0	0
382	4	2	2	2	2	1	609	0	829.564527988434	0	0	0	0
383	4	1	1	1	1	1	795	0	831.730457544327	0	0	0	0
384	4	1	2	2	1	1	606	0	834.07967042923	0	0	0	0
