Trial	Block	stimside	congruentcondition	colors	respside	accuracy	RT	reward	trialtime	tmstime	query	qresp	qrt
1	1	2	2	1	0	99	0	0	-0.013216495513916	0	0	0	0
2	1	1	1	1	2	2	602	0	2.55261254310608	0	0	0	0
3	1	2	2	2	1	2	707	0	4.70192074775696	0	0	0	0
4	1	1	1	1	1	1	786	0	6.96785449981689	0	0	0	0
5	1	2	2	1	2	1	587	0	9.33376312255859	0	0	0	0
6	1	1	1	2	1	1	566	0	11.483053445816	0	0	0	0
7	1	2	1	2	2	1	298	0	13.5990407466888	0	0	0	0
8	1	2	1	1	2	1	369	0	15.4484393596649	0	0	0	0
9	1	1	2	1	2	2	317	0	17.3644931316376	0	0	0	0
10	1	1	1	2	1	1	402	0	19.2472152709961	0	0	0	0
11	1	2	1	1	2	1	309	0	21.196581363678	0	0	0	0
12	1	1	2	2	1	1	532	0	23.0626454353333	0	0	0	0
13	1	1	2	1	2	2	480	0	25.1453106403351	0	0	0	0
14	1	1	1	1	1	1	728	0	27.1779870986938	0	0	0	0
15	1	1	2	1	1	1	573	0	29.4605755805969	0	0	0	0
16	1	2	1	2	2	1	608	0	31.5932114124298	0	0	0	0
17	1	2	1	2	2	1	330	0	33.75918841362	0	0	0	0
18	1	1	2	2	1	1	696	0	35.6419017314911	0	0	0	0
19	1	2	2	2	2	1	502	0	37.8911783695221	0	0	0	0
20	1	2	1	2	0	99	0	0	39.940523147583	0	0	0	0
21	1	2	2	2	2	1	526	0	42.5230107307434	0	0	0	0
22	1	1	1	1	1	1	412	0	44.605676651001	0	0	0	0
23	1	1	2	2	1	1	534	0	46.571697473526	0	0	0	0
24	1	2	1	2	2	1	451	0	48.6710290908813	0	0	0	0
25	1	1	1	2	1	1	364	0	50.6703751087189	0	0	0	0
26	1	2	2	1	2	1	560	0	52.5864241123199	0	0	0	0
27	1	2	1	2	2	1	307	0	54.702406167984	0	0	0	0
28	1	2	2	2	2	1	409	0	56.5684711933136	0	0	0	0
29	1	1	2	2	1	1	419	0	58.5345060825348	0	0	0	0
30	1	2	2	2	2	1	685	0	60.5005331039429	0	0	0	0
31	1	1	2	1	1	1	868	0	62.7331402301788	0	0	0	0
32	1	2	2	2	2	1	580	0	65.1490173339844	0	0	0	0
33	1	1	2	1	1	1	681	0	67.2816605567932	0	0	0	0
34	1	2	1	1	2	1	560	0	69.5142753124237	0	0	0	0
35	1	2	1	1	2	1	316	0	71.6302673816681	0	0	0	0
36	1	1	1	2	1	1	369	0	73.4963281154633	0	0	0	0
37	1	2	2	2	2	1	485	0	75.4123663902283	0	0	0	0
38	1	1	2	2	1	1	613	0	77.4450521469116	0	0	0	0
39	1	1	2	1	1	1	783	0	79.6110084056854	0	0	0	0
40	1	1	2	2	1	1	427	0	81.943596124649	0	0	0	0
41	1	2	2	2	2	1	556	0	83.9262762069702	0	0	0	0
42	1	2	1	1	2	1	352	0	86.0422651767731	0	0	0	0
43	1	1	1	2	1	1	396	0	87.9416501522064	0	0	0	0
44	1	1	1	1	2	2	495	0	89.8910162448883	0	0	0	0
45	1	1	1	2	1	1	653	0	91.9403557777405	0	0	0	0
46	1	2	2	2	2	1	622	0	94.1563086509705	0	0	0	0
47	1	2	2	1	2	1	423	0	96.3389282226562	0	0	0	0
48	1	1	2	1	1	1	585	0	98.3216166496277	0	0	0	0
49	1	2	1	2	2	1	588	0	100.454266309738	0	0	0	0
50	1	2	1	2	2	1	558	0	102.603561401367	0	0	0	0
51	1	1	2	2	1	1	530	0	104.719552516937	0	0	0	0
52	1	1	1	1	1	1	361	0	106.802208423615	0	0	0	0
53	1	2	1	2	2	1	524	0	108.718264102936	0	0	0	0
54	1	2	1	1	2	1	458	0	110.800922393799	0	0	0	0
55	1	2	2	1	2	1	537	0	112.816934585571	0	0	0	0
56	1	1	1	1	1	1	574	0	114.916255235672	0	0	0	0
57	1	1	2	2	2	2	331	0	117.048896074295	0	0	0	0
58	1	2	2	1	2	1	519	0	118.931621074677	0	0	0	0
59	1	1	1	2	1	1	453	0	120.997610569	0	0	0	0
60	1	2	1	1	2	1	486	0	122.996965646744	0	0	0	0
61	1	1	1	2	1	1	548	0	125.046307086945	0	0	0	0
62	1	1	1	1	1	1	361	0	127.145629167557	0	0	0	0
63	1	2	1	2	2	1	413	0	129.061674356461	0	0	0	0
64	1	2	2	1	2	1	519	0	131.027697563171	0	0	0	0
65	1	1	2	1	1	1	525	0	133.093705177307	0	0	0	0
66	1	2	2	2	2	1	651	0	135.176367282867	0	0	0	0
67	1	2	2	1	2	1	315	0	137.392316102982	0	0	0	0
68	1	2	2	1	2	1	344	0	139.258370637894	0	0	0	0
69	1	1	2	1	1	1	405	0	141.15775346756	0	0	0	0
70	1	2	1	1	2	1	639	0	143.107130050659	0	0	0	0
71	1	2	2	2	2	1	624	0	145.306413412094	0	0	0	0
72	1	2	1	1	2	1	386	0	147.489037513733	0	0	0	0
73	1	1	2	1	1	1	485	0	149.421751260757	0	0	0	0
74	1	1	2	2	1	1	572	0	151.454433202744	0	0	0	0
75	1	2	1	1	2	1	352	0	153.587065458298	0	0	0	0
76	1	1	1	1	1	1	404	0	155.486445188522	0	0	0	0
77	1	2	2	1	2	1	504	0	157.452486276627	0	0	0	0
78	1	2	1	2	1	2	500	0	159.518478631973	0	0	0	0
79	1	1	1	1	1	1	619	0	161.567823171616	0	0	0	0
80	1	2	1	2	2	1	429	0	163.733785152435	0	0	0	0
81	1	1	1	1	1	1	478	0	165.716482162476	0	0	0	0
82	1	1	1	1	1	1	462	0	167.749145746231	0	0	0	0
83	1	1	1	2	1	1	573	0	169.765173196793	0	0	0	0
84	1	1	2	2	1	1	617	0	171.897807598114	0	0	0	0
85	1	1	1	2	1	1	459	0	174.063769340515	0	0	0	0
86	1	1	1	2	1	1	419	0	176.079792499542	0	0	0	0
87	1	2	1	1	2	1	333	0	178.045822143555	0	0	0	0
88	1	1	1	2	1	1	451	0	179.92854309082	0	0	0	0
89	1	2	2	1	1	2	458	0	181.944561243057	0	0	0	0
90	1	1	2	2	1	1	890	0	183.960577249527	0	0	0	0
91	1	1	2	1	1	1	849	0	186.409778356552	0	0	0	0
92	1	2	2	2	2	1	555	0	188.808999538422	0	0	0	0
93	1	2	1	1	2	1	302	0	190.924980163574	0	0	0	0
94	1	2	2	1	2	1	588	0	192.791047334671	0	0	0	0
95	1	1	2	1	1	1	454	0	194.940359115601	0	0	0	0
96	1	1	2	2	1	1	400	0	196.939710140228	0	0	0	0
97	2	1	1	1	0	99	0	0	211.551649570465	0	0	0	0
98	2	1	2	2	1	1	558	0	214.117475748062	0	0	0	0
99	2	1	2	2	1	1	490	0	216.233464241028	0	0	0	0
100	2	1	1	2	1	1	400	0	218.282805204391	0	0	0	0
101	2	2	2	1	2	1	491	0	220.232172250748	0	0	0	0
102	2	2	1	2	2	1	362	0	222.281506299973	0	0	0	0
103	2	1	1	1	1	1	358	0	224.197557210922	0	0	0	0
104	2	2	2	2	1	2	361	0	226.113604068756	0	0	0	0
105	2	1	2	1	2	2	397	0	228.02964425087	0	0	0	0
106	2	2	2	2	2	1	568	0	229.9790122509	0	0	0	0
107	2	2	1	2	2	1	549	0	232.094999074936	0	0	0	0
108	2	2	2	1	2	1	401	0	234.194308519363	0	0	0	0
109	2	1	2	2	1	1	420	0	236.143681526184	0	0	0	0
110	2	2	2	2	2	1	461	0	238.126381158829	0	0	0	0
111	2	1	1	2	1	1	534	0	240.142393112183	0	0	0	0
112	2	1	2	2	1	1	626	0	242.225048065186	0	0	0	0
113	2	1	1	2	1	1	436	0	244.407683610916	0	0	0	0
114	2	1	2	2	1	1	406	0	246.39036822319	0	0	0	0
115	2	2	1	2	2	1	671	0	248.356402158737	0	0	0	0
116	2	2	1	2	2	1	310	0	250.589018344879	0	0	0	0
117	2	2	1	2	2	1	292	0	252.455066680908	0	0	0	0
118	2	2	2	1	2	1	459	0	254.304483175278	0	0	0	0
119	2	1	1	2	1	1	459	0	256.320492267609	0	0	0	0
120	2	2	2	2	2	1	707	0	258.336508274078	0	0	0	0
121	2	1	2	1	1	1	586	0	260.602441072464	0	0	0	0
122	2	2	2	2	2	1	460	0	262.751742124557	0	0	0	0
123	2	1	2	2	1	1	700	0	264.767749547958	0	0	0	0
124	2	2	1	1	1	2	484	0	267.017021417618	0	0	0	0
125	2	1	1	1	1	1	570	0	269.04970407486	0	0	0	0
126	2	2	2	2	2	1	550	0	271.182346582413	0	0	0	0
127	2	1	2	1	1	1	483	0	273.281674146652	0	0	0	0
128	2	1	1	2	1	1	649	0	275.314342260361	0	0	0	0
129	2	2	2	1	2	1	578	0	277.513633489609	0	0	0	0
130	2	2	2	2	2	1	557	0	279.646269083023	0	0	0	0
131	2	1	2	2	1	1	506	0	281.762251615524	0	0	0	0
132	2	1	2	1	1	1	368	0	283.828249692917	0	0	0	0
133	2	2	2	1	2	1	524	0	285.744301080704	0	0	0	0
134	2	1	1	2	1	1	465	0	287.826964616776	0	0	0	0
135	2	1	2	2	1	1	497	0	289.842974185944	0	0	0	0
136	2	1	2	1	1	1	544	0	291.892306566238	0	0	0	0
137	2	1	1	2	1	1	396	0	293.991637229919	0	0	0	0
138	2	2	1	2	2	1	384	0	295.941009521484	0	0	0	0
139	2	2	2	1	2	1	354	0	297.873712301254	0	0	0	0
140	2	1	2	1	1	1	407	0	299.773100376129	0	0	0	0
141	2	2	1	1	2	1	529	0	301.739127159119	0	0	0	0
142	2	2	1	2	2	1	446	0	303.82178735733	0	0	0	0
143	2	2	1	1	2	1	423	0	305.821141242981	0	0	0	0
144	2	2	2	1	2	1	584	0	307.803834199905	0	0	0	0
145	2	1	2	1	2	2	444	0	309.936476230621	0	0	0	0
146	2	1	1	1	1	1	453	0	311.935830116272	0	0	0	0
147	2	2	1	1	2	1	533	0	313.935184240341	0	0	0	0
148	2	1	1	2	1	1	602	0	316.017844200134	0	0	0	0
149	2	1	1	1	1	1	517	0	318.183806419373	0	0	0	0
150	2	1	1	1	1	1	474	0	320.249795436859	0	0	0	0
151	2	1	2	2	1	1	370	0	322.282485723495	0	0	0	0
152	2	1	2	2	0	99	0	0	324.198519229889	0	0	0	0
153	2	2	2	2	2	1	751	0	326.781017303467	0	0	0	0
154	2	1	1	2	1	1	604	0	329.096945762634	0	0	0	0
155	2	2	2	1	2	1	902	0	331.246238231659	0	0	0	0
156	2	2	2	2	2	1	581	0	333.712111711502	0	0	0	0
157	2	1	2	2	1	1	511	0	335.844750165939	0	0	0	0
158	2	2	2	2	2	1	533	0	337.910757303238	0	0	0	0
159	2	1	2	2	1	1	562	0	340.010078430176	0	0	0	0
160	2	2	2	1	2	1	454	0	342.126061201096	0	0	0	0
161	2	1	1	1	2	2	687	0	344.125409126282	0	0	0	0
162	2	1	1	1	1	1	654	0	346.358024358749	0	0	0	0
163	2	1	1	1	1	1	319	0	348.55731511116	0	0	0	0
164	2	1	2	1	1	1	549	0	350.440031766891	0	0	0	0
165	2	2	1	2	1	2	506	0	352.539346218109	0	0	0	0
166	2	1	2	1	1	1	552	0	354.588686466217	0	0	0	0
167	2	2	1	1	2	1	373	0	356.688011169434	0	0	0	0
168	2	2	1	1	2	1	400	0	358.620718240738	0	0	0	0
169	2	2	2	1	2	1	634	0	360.570091724396	0	0	0	0
170	2	2	2	2	1	2	10	0	362.769372463226	0	0	0	0
171	2	2	2	1	2	1	493	0	364.335535287857	0	0	0	0
172	2	1	1	2	1	1	420	0	366.384877204895	0	0	0	0
173	2	2	1	1	2	1	534	0	368.35090136528	0	0	0	0
174	2	1	1	1	1	1	691	0	370.433567285538	0	0	0	0
175	2	2	1	2	2	1	434	0	372.682832479477	0	0	0	0
176	2	2	1	1	2	1	459	0	374.665523529053	0	0	0	0
177	2	2	1	2	2	1	307	0	376.681537151337	0	0	0	0
178	2	2	2	2	1	2	313	0	378.547606229782	0	0	0	0
179	2	1	2	1	1	1	735	0	380.41366648674	0	0	0	0
180	2	2	1	2	2	1	508	0	382.712930202484	0	0	0	0
181	2	1	1	1	1	1	682	0	384.778926134109	0	0	0	0
182	2	1	2	1	1	1	673	0	387.011531114578	0	0	0	0
183	2	1	1	1	1	1	377	0	389.244146108627	0	0	0	0
184	2	2	2	1	2	1	444	0	391.176851272583	0	0	0	0
185	2	1	1	2	1	1	581	0	393.176202297211	0	0	0	0
186	2	2	1	1	2	1	464	0	395.308848142624	0	0	0	0
187	2	1	1	2	1	1	584	0	397.324861049652	0	0	0	0
188	2	2	1	1	2	1	548	0	399.457512140274	0	0	0	0
189	2	1	2	1	1	1	721	0	401.556833744049	0	0	0	0
190	2	2	1	1	2	1	430	0	403.839422225952	0	0	0	0
191	2	2	1	2	2	1	607	0	405.822108745575	0	0	0	0
192	2	2	1	1	2	1	377	0	407.988082170486	0	0	0	0
193	3	2	2	2	2	1	778	0	430.947312116623	0	0	0	0
194	3	2	1	1	2	1	445	0	433.279893159866	0	0	0	0
195	3	1	2	2	1	1	606	0	435.279255151749	0	0	0	0
196	3	2	2	2	2	1	568	0	437.445218086243	0	0	0	0
197	3	2	2	1	2	1	403	0	439.577860116959	0	0	0	0
198	3	1	2	2	1	1	462	0	441.543883323669	0	0	0	0
199	3	1	1	1	1	1	311	0	443.559911727905	0	0	0	0
200	3	1	1	2	1	1	372	0	445.425969362259	0	0	0	0
201	3	2	2	2	2	1	511	0	447.358679056168	0	0	0	0
202	3	1	1	2	1	1	445	0	449.424674749374	0	0	0	0
203	3	2	1	1	2	1	414	0	451.424021482468	0	0	0	0
204	3	1	2	1	1	1	487	0	453.390062570572	0	0	0	0
205	3	1	1	2	2	2	543	0	455.422738790512	0	0	0	0
206	3	2	1	2	2	1	539	0	457.522057771683	0	0	0	0
207	3	2	1	2	2	1	456	0	459.621374130249	0	0	0	0
208	3	1	2	1	1	1	441	0	461.63738822937	0	0	0	0
209	3	2	2	1	2	1	536	0	463.636741161346	0	0	0	0
210	3	2	2	2	2	1	582	0	465.719395637512	0	0	0	0
211	3	1	1	2	1	1	497	0	467.852042198181	0	0	0	0
212	3	1	1	2	1	1	416	0	469.901388168335	0	0	0	0
213	3	1	2	2	1	1	506	0	471.884080648422	0	0	0	0
214	3	1	1	1	2	2	440	0	473.95007109642	0	0	0	0
215	3	1	2	1	1	1	592	0	475.949420452118	0	0	0	0
216	3	1	1	2	1	1	619	0	478.098733663559	0	0	0	0
217	3	2	1	1	2	1	621	0	480.26469540596	0	0	0	0
218	3	1	2	2	1	1	544	0	482.430668592453	0	0	0	0
219	3	1	1	2	1	1	340	0	484.529975175858	0	0	0	0
220	3	2	2	2	2	1	489	0	486.429373502731	0	0	0	0
221	3	1	2	1	1	1	560	0	488.462050199509	0	0	0	0
222	3	2	1	2	2	1	812	0	490.578026533127	0	0	0	0
223	3	1	2	1	1	1	646	0	492.943930149078	0	0	0	0
224	3	2	2	2	2	1	502	0	495.143221139908	0	0	0	0
225	3	1	1	1	1	1	686	0	497.209221124649	0	0	0	0
226	3	2	1	2	2	1	468	0	499.441817522049	0	0	0	0
227	3	1	2	2	1	1	452	0	501.457844257355	0	0	0	0
228	3	1	1	1	2	2	662	0	503.457192182541	0	0	0	0
229	3	2	1	1	2	1	581	0	505.67314863205	0	0	0	0
230	3	2	2	1	2	1	689	0	507.805785655975	0	0	0	0
231	3	1	1	2	1	1	487	0	510.055059194565	0	0	0	0
232	3	1	2	2	1	1	503	0	512.087731599808	0	0	0	0
233	3	1	2	2	1	1	582	0	514.137074708939	0	0	0	0
234	3	1	2	2	1	1	352	0	516.269712209702	0	0	0	0
235	3	1	2	2	1	1	509	0	518.185756444931	0	0	0	0
236	3	1	2	1	1	1	810	0	520.251761198044	0	0	0	0
237	3	1	1	1	1	1	404	0	522.617662191391	0	0	0	0
238	3	1	2	2	1	1	591	0	524.56703209877	0	0	0	0
239	3	2	2	1	2	1	491	0	526.716331243515	0	0	0	0
240	3	1	2	1	1	1	552	0	528.765670537949	0	0	0	0
241	3	2	1	1	2	1	733	0	530.864996194839	0	0	0	0
242	3	2	1	2	2	1	514	0	533.147588253021	0	0	0	0
243	3	2	1	2	2	1	465	0	535.213579416275	0	0	0	0
244	3	1	1	2	1	1	544	0	537.229592323303	0	0	0	0
245	3	2	2	1	2	1	605	0	539.328918218613	0	0	0	0
246	3	2	2	1	2	1	504	0	541.494884252548	0	0	0	0
247	3	2	1	1	2	1	495	0	543.560887098312	0	0	0	0
248	3	2	1	2	2	1	510	0	545.610223054886	0	0	0	0
249	3	2	2	2	2	1	772	0	547.676222085953	0	0	0	0
250	3	1	1	2	1	1	470	0	549.99213719368	0	0	0	0
251	3	1	1	1	1	1	894	0	552.024806499481	0	0	0	0
252	3	1	2	1	1	1	572	0	554.474022388458	0	0	0	0
253	3	1	1	1	1	1	464	0	556.606668233871	0	0	0	0
254	3	2	1	2	2	1	671	0	558.622674226761	0	0	0	0
255	3	1	1	1	1	1	593	0	560.838621139526	0	0	0	0
256	3	2	1	2	2	1	786	0	562.987934589386	0	0	0	0
257	3	2	1	2	2	1	461	0	565.337179660797	0	0	0	0
258	3	1	1	2	1	1	469	0	567.353180646896	0	0	0	0
259	3	2	2	1	2	1	726	0	569.369195461273	0	0	0	0
260	3	2	2	2	2	1	459	0	571.651804447174	0	0	0	0
261	3	1	2	1	1	1	859	0	573.667809486389	0	0	0	0
262	3	2	1	1	2	1	610	0	576.100355148315	0	0	0	0
263	3	2	2	2	1	2	574	0	578.266332149506	0	0	0	0
264	3	1	1	1	1	1	792	0	580.398965358734	0	0	0	0
265	3	1	2	1	1	1	706	0	582.748207092285	0	0	0	0
266	3	1	2	2	1	1	465	0	585.014136552811	0	0	0	0
267	3	1	1	1	1	1	465	0	587.030156373978	0	0	0	0
268	3	1	2	2	1	1	537	0	589.046172142029	0	0	0	0
269	3	2	1	2	2	1	653	0	591.145493268967	0	0	0	0
270	3	2	2	2	2	1	799	0	593.34478020668	0	0	0	0
271	3	2	2	1	2	1	410	0	595.694020271301	0	0	0	0
272	3	1	2	1	1	1	483	0	597.660045385361	0	0	0	0
273	3	2	1	1	2	1	562	0	599.692728281021	0	0	0	0
274	3	2	1	1	2	1	446	0	601.808704376221	0	0	0	0
275	3	1	1	2	1	1	399	0	603.808054447174	0	0	0	0
276	3	1	2	1	1	1	569	0	605.757437705994	0	0	0	0
277	3	1	1	1	1	1	493	0	607.873419523239	0	0	0	0
278	3	2	2	2	2	1	644	0	609.922747135162	0	0	0	0
279	3	2	1	1	2	1	399	0	612.122042179108	0	0	0	0
280	3	2	2	1	2	1	463	0	614.07141327858	0	0	0	0
281	3	2	1	2	2	1	592	0	616.087424039841	0	0	0	0
282	3	2	1	1	2	1	330	0	618.236726760864	0	0	0	0
283	3	2	2	1	1	2	424	0	620.119445085526	0	0	0	0
284	3	2	2	2	0	99	0	0	622.118801116943	0	0	0	0
285	3	1	1	1	1	1	650	0	624.684649467468	0	0	0	0
286	3	2	2	1	2	1	683	0	626.883935451508	0	0	0	0
287	3	2	1	1	2	1	682	0	629.11653637886	0	0	0	0
288	3	2	2	1	2	1	435	0	631.349146127701	0	0	0	0
289	4	2	2	1	0	99	0	0	653.008814096451	0	0	0	0
290	4	1	1	2	1	1	889	0	655.574647188187	0	0	0	0
291	4	2	1	2	2	1	447	0	658.023851633072	0	0	0	0
292	4	2	1	1	2	1	409	0	660.023206472397	0	0	0	0
293	4	2	1	1	2	1	410	0	661.989237070084	0	0	0	0
294	4	1	2	2	1	1	580	0	663.955266475677	0	0	0	0
295	4	1	1	1	1	1	479	0	666.087910175323	0	0	0	0
296	4	2	2	1	2	1	576	0	668.120594263077	0	0	0	0
297	4	2	1	1	2	1	450	0	670.253240346909	0	0	0	0
298	4	2	2	2	2	1	572	0	672.252590417862	0	0	0	0
299	4	2	2	1	2	1	512	0	674.368574142456	0	0	0	0
300	4	1	1	1	1	1	429	0	676.434576272964	0	0	0	0
301	4	1	2	1	1	1	358	0	678.433925390244	0	0	0	0
302	4	2	1	2	2	1	467	0	680.349962234497	0	0	0	0
303	4	1	1	2	1	1	522	0	682.365983247757	0	0	0	0
304	4	2	2	2	2	1	744	0	684.431990146637	0	0	0	0
305	4	2	2	1	2	1	452	0	686.731234550476	0	0	0	0
306	4	1	2	1	1	1	636	0	688.74724650383	0	0	0	0
307	4	1	1	1	2	2	638	0	690.946543216705	0	0	0	0
308	4	1	1	1	1	1	342	0	693.129172086716	0	0	0	0
309	4	1	2	2	2	2	636	0	695.028549671173	0	0	0	0
310	4	1	2	2	0	99	0	0	697.211186170578	0	0	0	0
311	4	1	1	2	1	1	382	0	699.793686151505	0	0	0	0
312	4	2	1	1	2	1	641	0	701.726389169693	0	0	0	0
313	4	2	2	1	2	1	658	0	703.925683736801	0	0	0	0
314	4	2	2	1	2	1	386	0	706.141624212265	0	0	0	0
315	4	1	1	1	1	1	766	0	708.074333429337	0	0	0	0
316	4	1	2	1	1	1	561	0	710.390249490738	0	0	0	0
317	4	2	2	2	2	1	582	0	712.506242752075	0	0	0	0
318	4	1	1	1	1	1	985	0	714.638879299164	0	0	0	0
319	4	1	2	2	1	1	612	0	717.171392202377	0	0	0	0
320	4	1	2	2	1	1	382	0	719.337356090546	0	0	0	0
321	4	1	1	1	1	1	594	0	721.270072460175	0	0	0	0
322	4	2	1	2	2	1	428	0	723.419377565384	0	0	0	0
323	4	2	2	1	2	1	910	0	725.402058362961	0	0	0	0
324	4	1	2	2	1	1	581	0	727.867937088013	0	0	0	0
325	4	2	1	1	2	1	456	0	730.000579118729	0	0	0	0
326	4	2	2	1	2	1	799	0	732.016585111618	0	0	0	0
327	4	1	2	1	1	1	826	0	734.365836143494	0	0	0	0
328	4	2	1	2	2	1	645	0	736.748388528824	0	0	0	0
329	4	2	1	2	2	1	557	0	738.947689056396	0	0	0	0
330	4	2	1	2	2	1	400	0	741.063657522202	0	0	0	0
331	4	2	2	2	2	1	699	0	743.013035297394	0	0	0	0
332	4	1	2	2	1	1	786	0	745.262310266495	0	0	0	0
333	4	1	1	1	1	1	660	0	747.611548185349	0	0	0	0
334	4	2	1	1	2	1	436	0	749.827503204346	0	0	0	0
335	4	2	2	1	2	1	719	0	751.810195446014	0	0	0	0
336	4	2	1	1	2	1	436	0	754.076127290726	0	0	0	0
337	4	2	2	2	2	1	669	0	756.05880856514	0	0	0	0
338	4	2	2	2	2	1	549	0	758.291426181793	0	0	0	0
339	4	2	2	2	2	1	450	0	760.390742301941	0	0	0	0
340	4	2	2	2	2	1	418	0	762.390101671219	0	0	0	0
341	4	1	2	2	0	99	0	0	764.356124401093	0	0	0	0
342	4	1	1	2	0	99	0	0	766.921966552734	0	0	0	0
343	4	2	2	2	0	99	0	0	769.487800359726	0	0	0	0
344	4	1	1	2	1	1	731	0	772.053649187088	0	0	0	0
345	4	1	2	2	1	1	568	0	774.336228609085	0	0	0	0
346	4	2	2	1	0	99	0	0	776.452216148376	0	0	0	0
347	4	1	2	1	0	99	0	0	779.018056631088	0	0	0	0
348	4	1	2	1	0	99	0	0	781.583895206451	0	0	0	0
349	4	1	2	1	0	99	0	0	784.166386604309	0	0	0	0
350	4	1	1	1	0	99	0	0	786.732223510742	0	0	0	0
351	4	2	1	1	0	99	0	0	789.298068284988	0	0	0	0
352	4	2	1	2	0	99	0	0	791.863897800446	0	0	0	0
353	4	1	1	2	0	99	0	0	794.429740190506	0	0	0	0
354	4	2	2	1	0	99	0	0	796.995568752289	0	0	0	0
355	4	2	1	1	0	99	0	0	799.561414718628	0	0	0	0
356	4	1	2	1	0	99	0	0	802.127254009247	0	0	0	0
357	4	2	1	2	0	99	0	0	804.693081140518	0	0	0	0
358	4	2	1	2	0	99	0	0	807.258925676346	0	0	0	0
359	4	1	1	2	0	99	0	0	809.824765205383	0	0	0	0
360	4	2	2	2	0	99	0	0	812.407250404358	0	0	0	0
361	4	2	2	2	2	1	755	0	814.97309422493	0	0	0	0
362	4	2	2	1	2	1	425	0	817.272357225418	0	0	0	0
363	4	1	1	1	1	1	586	0	819.255039691925	0	0	0	0
364	4	1	2	1	1	1	429	0	821.387691259384	0	0	0	0
365	4	2	1	2	2	1	423	0	823.370379209518	0	0	0	0
366	4	1	2	2	2	2	408	0	825.353069067001	0	0	0	0
367	4	2	2	2	2	1	666	0	827.319101333618	0	0	0	0
368	4	1	2	1	1	1	514	0	829.535043478012	0	0	0	0
369	4	1	2	2	2	2	712	0	831.601054191589	0	0	0	0
370	4	2	1	1	2	1	726	0	833.866974115372	0	0	0	0
371	4	1	2	2	1	1	588	0	836.149581193924	0	0	0	0
372	4	1	1	1	1	1	423	0	838.298878192902	0	0	0	0
373	4	1	1	2	1	1	592	0	840.264907598495	0	0	0	0
374	4	1	1	2	1	1	571	0	842.414223194122	0	0	0	0
375	4	1	1	2	1	1	431	0	844.546858072281	0	0	0	0
376	4	2	1	2	2	1	480	0	846.529549360275	0	0	0	0
377	4	1	2	1	1	1	622	0	848.578884124756	0	0	0	0
378	4	1	2	1	1	1	808	0	850.761513471603	0	0	0	0
379	4	2	1	1	2	1	442	0	853.127424240112	0	0	0	0
380	4	1	1	2	1	1	443	0	855.126777172089	0	0	0	0
381	4	2	1	1	2	1	339	0	857.12611913681	0	0	0	0
382	4	1	1	1	1	1	369	0	859.025512695312	0	0	0	0
383	4	1	1	2	1	1	476	0	860.958215475082	0	0	0	0
384	4	2	1	2	2	1	355	0	862.990889549255	0	0	0	0
